TrialType,CondType,Lag,T1_PA,T2_PA,T1Loc,T2Loc,PreDistractor,PostDistractor,TotalImg,cueWord,T1cue,StimLength,isi,PicFolder,Img1,Img2,Img3,Img4,Img5,Img6,Img7,Img8,Img9,Img10,Img11,Img12,Img13,Img14,Img15,Img16,Img17,T1_Identity,Distractor1,Distractor2,Distractor3,Distractor4,Distractor5,Distractor6,Distractor7,Distractor8,Distractor9,Distractor10,Distractor11,Distractor12,Distractor13,Distractor14,Distractor15,Distractor16,trials.thisRepN,trials.thisTrialN,trials.thisN,trials.thisIndex,text.started,text.stopped,key_resp.keys,key_resp.rt,key_resp.started,key_resp.stopped,error1,error2,error3,error4,error5,error6,error7,error8,error9,error10,error11,error12,error13,error14,text_1.started,text_1.stopped,Fixation_Cross.started,Fixation_Cross.stopped,Rapid_Image_Present.started,Rapid_Image_Present.stopped,T1Response.started,T1Response.stopped,key_resp_2.keys,key_resp_2.rt,key_resp_2.started,key_resp_2.stopped,T2Response.started,T2Response.stopped,key_resp_3.keys,key_resp_3.rt,key_resp_3.started,key_resp_3.stopped,error15,error16,error17,error18,error19,error20,error21,error22,error23,error24,participant,session,date,expName,psychopyVersion,frameRate,
,,,,,,,,,,,,,,,,,,,,,,,,,,,,,,,,,,,,,,,,,,,,,,,,,,,,,22.027889799996046,None,space,1.2444500000128755,22.027889799996046,None,,,,,,,,,,,,,,,,,,,,,,,,,,,,,,,,,,,,,,,,,,,errorPics,001,2022-06-14_17h52.29.952,ABstudy,2022.1.4,59.94129350195492,
AB,Lag1_T1P_T2P,1,P,P,6,7,5,5,12,tent,Did you see the tent?,0.2,0.016,JPG\,lamp04a,broccoli01a,umbrella04,garlic01a,staples,tent,blender,ring01,leaf02a,cellphone,medal02b,cd,None,None,None,None,None,tent,lamp04a,broccoli01a,umbrella04,garlic01a,staples,earrings01,avocado01,ring01,leaf02a,cellphone,medal02b,cd,calculator01,sunglasses04,strawberry,eraser,0,0,0,92,,,,,,,resources\JPG\umbrella04.jpg,resources\JPG\umbrella04.jpg,resources\JPG\umbrella04.jpg,resources\JPG\umbrella04.jpg,resources\JPG\umbrella04.jpg,resources\JPG\umbrella04.jpg,resources\JPG\staples.jpg,resources\JPG\staples.jpg,resources\JPG\staples.jpg,resources\JPG\staples.jpg,resources\JPG\staples.jpg,resources\JPG\staples.jpg,resources\JPG\staples.jpg,resources\JPG\staples.jpg,26.645126799994614,27.647296399998595,27.630785799992736,28.405864999993355,28.405864999993355,None,29.564283200001228,None,right,0.8073449000075925,29.564283200001228,None,30.39716490000137,None,left,0.07314110000152141,30.39716490000137,None,,,,,,,,,,,errorPics,001,2022-06-14_17h52.29.952,ABstudy,2022.1.4,59.94129350195492,
AB,Lag1_T1P_T2P,1,P,P,8,9,7,5,14,giraffe,Did you see the giraffe?,0.2,0.016,JPG\,pencil01,condom,banana01,lipstick02a,toaster01,grape01,key01,giraffe,blender,pineapple01a,strawberry,teabag,staples,paintbrush01,None,None,None,giraffe,pencil01,condom,banana01,lipstick02a,toaster01,grape01,key01,medal02b,mushroom01,pineapple01a,strawberry,teabag,staples,paintbrush01,brick,sewingmachine01a,0,1,1,0,,,,,,,,,,,,,,,,,,,,,30.506638599996222,31.51409369999601,31.497487599990563,32.13200369999686,32.13200369999686,None,33.26876409999386,None,right,0.5149969000049168,33.26876409999386,None,33.81369989999803,None,left,0.07070070000190753,33.81369989999803,None,,,,,,,,,,,errorPics,001,2022-06-14_17h52.29.952,ABstudy,2022.1.4,59.94129350195492,
AB,Lag5_T1A_T2P,5,A,P,5,10,4,5,15,None,Did you see the ?,0.2,0.016,JPG\,measuringcup01,dice05a,greenolive,lipstick02a,feather03a,balloon01b,lighter01,calculator01,carrot01,blender,microscope,brick,thermometer02b,screw02,speaker04,None,None,None,measuringcup01,dice05a,greenolive,lipstick02a,feather03a,balloon01b,lighter01,calculator01,carrot01,plate01b,microscope,brick,thermometer02b,screw02,speaker04,spoon01,0,2,2,437,,,,,,,,,,,,,,,,,,,,,33.91370079999615,34.914068700003554,34.897459599989816,35.529206799998065,35.529206799998065,None,36.60233090000111,None,right,0.4344658000045456,36.60233090000111,None,37.06381099999999,None,left,0.05175060000328813,37.06381099999999,None,,,,,,,,,,,errorPics,001,2022-06-14_17h52.29.952,ABstudy,2022.1.4,59.94129350195492,
AB,Lag1_T1A_T2P,1,A,P,7,8,6,3,11,None,Did you see the ?,0.2,0.016,JPG\,lipstick02a,cucumber,candle08b,printer02,grape01,violin,paintbrush01,blender,belt02a,balloon01b,thermometer02b,None,None,None,None,None,None,None,lipstick02a,cucumber,candle08b,printer02,grape01,violin,paintbrush01,lighter01,belt02a,balloon01b,thermometer02b,microscope,cigarette,book01b,pineapple01a,speaker04,0,3,3,395,,,,,,,,,,,,,,,,,,,,,37.147065099998144,38.1470677999896,38.13039789999311,38.74494429999322,38.74494429999322,None,39.85032709999359,None,right,0.46389120000822004,39.85032709999359,None,40.34688070000266,None,left,0.042929700008244254,40.34688070000266,None,,,,,,,,,,,errorPics,001,2022-06-14_17h52.29.952,ABstudy,2022.1.4,59.94129350195492,
AB,Lag1_T1P_T2A,1,P,A,7,8,6,4,12,gate,Did you see the gate?,0.2,0.016,JPG\,pen04b,speaker04,lighter01,cherry01,stapler03a,onion,entrancegate,toothbrush03b,broom01,sewingmachine01a,book01b,iron01b,None,None,None,None,None,entrancegate,pen04b,speaker04,lighter01,cherry01,stapler03a,onion,sock01a,toothbrush03b,broom01,sewingmachine01a,book01b,iron01b,clock01a,sandal,cd,blueberry01,0,4,4,278,,,,,,,,,,,,,,,,,,,,,40.41360679999343,41.41370140000072,41.39705749999848,42.0198226999928,42.0198226999928,None,43.128968999997596,None,right,0.458218300002045,43.128968999997596,None,43.613885899991146,None,left,0.042715199990198016,43.613885899991146,None,,,,,,,,,,,errorPics,001,2022-06-14_17h52.29.952,ABstudy,2022.1.4,59.94129350195492,
AB,Lag1_T1A_T2A,1,A,A,8,9,7,4,13,None,Did you see the ?,0.2,0.016,JPG\,pizza,strawberry,potato02b,speaker04,battery02b,iron01b,dice05a,cellphone,globe,banana01,medal02b,baseball01a,toaster01,None,None,None,None,None,pizza,strawberry,potato02b,speaker04,battery02b,iron01b,dice05a,cellphone,globe,banana01,medal02b,baseball01a,toaster01,broom01,ring01,cherry01,0,5,5,449,,,,,,,,,,,,,,,,,,,,,43.73836719999963,44.74692789999244,44.730285199999344,45.37180700000317,45.37180700000317,None,46.472721099999035,None,right,0.5014561999996658,46.472721099999035,None,46.99692559998948,None,left,0.03400020000117365,46.99692559998948,None,,,,,,,,,,,errorPics,001,2022-06-14_17h52.29.952,ABstudy,2022.1.4,59.94129350195492,
AB,Lag1_T1P_T2P,1,P,P,6,7,5,4,11,Tricycle,Did you see the Tricycle?,0.2,0.016,JPG\,candy,earrings01,dice05a,cd,sock01a,tricycle,blender,potato02b,feather03a,grape01,staples,None,None,None,None,None,None,tricycle,candy,earrings01,dice05a,cd,sock01a,blueberry01,button01,potato02b,feather03a,grape01,staples,scissors01,watch02a,candle08b,book01b,globe,0,6,6,94,,,,,,,,,,,,,,,,,,,,,47.06343259999994,48.06353630000376,48.06353630000376,49.08663869999873,49.08663869999873,None,50.13038210000377,None,right,0.21675669999967795,50.13038210000377,None,50.36361469999247,None,left,0.06351780000841245,50.36361469999247,None,,,,,,,,,,,errorPics,001,2022-06-14_17h52.29.952,ABstudy,2022.1.4,59.94129350195492,
AB,Lag5_T1P_T2A,5,P,A,7,12,6,5,17,stairs,Did you see the stairs?,0.2,0.016,JPG\,key01,apple07,ring01,leaf02a,hammer01,tableknife02,stairs,sponge01,baseball01a,thermometer02b,celery,calculator01,grape01,cucumber,tennisball01b,chain01,0,stairs,key01,apple07,ring01,leaf02a,hammer01,tableknife02,violin,sponge01,baseball01a,thermometer02b,celery,calculator01,grape01,cucumber,tennisball01b,chain01,0,7,7,350,,,,,,,,,,,,,,,,,,,,,50.44680140000128,51.44696249999106,51.44696249999106,52.068047099994146,52.068047099994146,None,53.18980989999545,54.19673399999738,right,1.158513899994432,53.18980989999545,None,54.38017609999224,None,left,0.05587740000919439,54.38017609999224,None,,,,,,,,,,,errorPics,001,2022-06-14_17h52.29.952,ABstudy,2022.1.4,59.94129350195492,
AB,Lag1_T1P_T2P,1,P,P,7,8,6,3,11,Moose,Did you see the Moose?,0.2,0.016,JPG\,sock01a,spoon01,umbrella04,comb02a,printer02,medal02b,moose,blender,greenolive,computerkeyboard02,cauliflower01,None,None,None,None,None,None,moose,sock01a,spoon01,umbrella04,comb02a,printer02,medal02b,lamp04a,bagel,greenolive,computerkeyboard02,cauliflower01,scarf,teabag,watermelon01,battery02b,potato02b,0,8,8,67,,,,,,,resources\JPG\umbrella04.jpg,resources\JPG\umbrella04.jpg,resources\JPG\umbrella04.jpg,resources\JPG\umbrella04.jpg,resources\JPG\umbrella04.jpg,resources\JPG\umbrella04.jpg,resources\JPG\umbrella04.jpg,resources\JPG\umbrella04.jpg,resources\JPG\umbrella04.jpg,resources\JPG\umbrella04.jpg,resources\JPG\umbrella04.jpg,resources\JPG\umbrella04.jpg,resources\JPG\umbrella04.jpg,resources\JPG\umbrella04.jpg,54.48350629999186,55.496761100002914,55.48014059998968,56.106839799991576,56.106839799991576,None,57.24124299999676,None,right,0.4782081000012113,57.24124299999676,None,57.74711280000338,None,left,0.04319290000421461,57.74711280000338,None,,,,,,,,,,,errorPics,001,2022-06-14_17h52.29.952,ABstudy,2022.1.4,59.94129350195492,
AB,Lag5_T1P_T2A,5,P,A,7,12,6,5,17,corn,Did you see the corn?,0.2,0.016,JPG\,avocado01,stapler03a,match,cauliflower01,paintbrush01,clock01a,corn02,cd,balloon01b,cellphone,watch02a,pear01,toaster01,sponge01,orange,blueberry01,0,corn02,avocado01,stapler03a,match,cauliflower01,paintbrush01,clock01a,ruler05,cd,balloon01b,cellphone,watch02a,pear01,toaster01,sponge01,orange,blueberry01,0,9,9,317,,,,,,,,,,,,,,,,,,,,,57.81763249999494,58.83043319999706,58.813702500003274,59.436964499996975,59.436964499996975,None,60.53850959999545,61.54692789999535,right,1.5182710999943083,60.53850959999545,None,62.080329000003985,None,left,0.14517060000798665,62.080329000003985,None,,,,,,,,,,,errorPics,001,2022-06-14_17h52.29.952,ABstudy,2022.1.4,59.94129350195492,
AB,Lag1_T1P_T2P,1,P,P,8,9,7,5,14,Waterfall,Did you see the Waterfall?,0.2,0.016,JPG\,pizza,watch02a,greenolive,cucumber,match,violin,scissors01,waterfall,blender,cherry01,ring01,cigarette,microscope,cellphone,None,None,None,waterfall,pizza,watch02a,greenolive,cucumber,match,violin,scissors01,broom01,globe,cherry01,ring01,cigarette,microscope,cellphone,speaker04,onion,0,10,10,52,,,,,,,,,,,,,,,,,,,,,62.25482309999643,63.26340579999669,63.246685699996306,63.88403129999642,63.88403129999642,None,64.97405489999801,None,right,0.808510800008662,64.97405489999801,None,65.81369209999684,None,left,0.05214259999047499,65.81369209999684,None,,,,,,,,,,,errorPics,001,2022-06-14_17h52.29.952,ABstudy,2022.1.4,59.94129350195492,
AB,Lag1_T1A_T2A,1,A,A,5,6,4,4,10,None,Did you see the ?,0.2,0.016,JPG\,sock01a,spoon01,umbrella04,comb02a,printer02,medal02b,lamp04a,bagel,greenolive,computerkeyboard02,None,None,None,None,None,None,None,None,sock01a,spoon01,umbrella04,comb02a,printer02,medal02b,lamp04a,bagel,greenolive,computerkeyboard02,cauliflower01,scarf,teabag,watermelon01,battery02b,potato02b,0,11,11,447,,,,,,,resources\JPG\umbrella04.jpg,resources\JPG\umbrella04.jpg,resources\JPG\umbrella04.jpg,resources\JPG\umbrella04.jpg,resources\JPG\umbrella04.jpg,resources\JPG\umbrella04.jpg,resources\JPG\umbrella04.jpg,resources\JPG\umbrella04.jpg,resources\JPG\umbrella04.jpg,,,,,,65.90225980000105,66.91329139999289,66.8967518999998,67.52193689999694,67.52193689999694,None,68.52655880000384,None,right,0.6560792000091169,68.52655880000384,None,69.21320889999333,None,left,0.047397399990586564,69.21320889999333,None,,,,,,,,,,,errorPics,001,2022-06-14_17h52.29.952,ABstudy,2022.1.4,59.94129350195492,
AB,Lag1_T1P_T2P,1,P,P,5,6,4,3,9,Rubik cube,Did you see the Rubik cube?,0.2,0.016,JPG\,chain01,speaker04,avocado01,watermelon01,rubikcube,blender,lamp04a,fork03c,toaster01,None,None,None,None,None,None,None,None,rubikcube,chain01,speaker04,avocado01,watermelon01,scarf,comb02a,lamp04a,fork03c,toaster01,stapler03a,scissors01,cucumber,teabag,ashtray01,computerkeyboard02,book01b,0,12,12,95,,,,,,,,,,,,,,,,,,,,,69.3226350999903,70.32993739999074,70.31330500000331,70.92699369999173,70.92699369999173,None,71.9299064999941,None,right,0.4771783000032883,71.9299064999941,None,72.4298698999919,None,left,0.07802829999127425,72.4298698999919,None,,,,,,,,,,,errorPics,001,2022-06-14_17h52.29.952,ABstudy,2022.1.4,59.94129350195492,
AB,Lag1_T1P_T2P,1,P,P,7,8,6,3,11,compass,Did you see the compass?,0.2,0.016,JPG\,brick,plate01b,pen04b,toaster01,screwdriver04b,candle01,magneticcompass,blender,ruler05,ring01,orange,None,None,None,None,None,None,magneticcompass,brick,plate01b,pen04b,toaster01,screwdriver04b,candle01,envelope03a,feather03a,ruler05,ring01,orange,clock01a,lighter01,calculator01,mushroom01,chain01,0,13,13,66,,,,,,,,,,,,,,,,,,,,,72.54253690000041,73.54668630000378,73.53012789999775,74.15866109999479,74.15866109999479,None,75.25141099999018,None,right,0.36536460000206716,75.25141099999018,None,75.64678739999363,None,left,0.07094780000625178,75.64678739999363,None,,,,,,,,,,,errorPics,001,2022-06-14_17h52.29.952,ABstudy,2022.1.4,59.94129350195492,
AB,Lag5_T1P_T2P,5,P,P,6,11,5,5,16,motorcycle,Did you see the motorcycle?,0.2,0.016,JPG\,cucumber,ring01,lipstick02a,microscope,violin,motorcycle,celery,lighter01,cherry01,sewingmachine01a,blender,key01,binoculars01b,medal02b,watermelon01,dice05a,None,motorcycle,cucumber,ring01,lipstick02a,microscope,violin,garlic01a,celery,lighter01,cherry01,sewingmachine01a,belt02a,key01,binoculars01b,medal02b,watermelon01,dice05a,0,14,14,138,,,,,,,,,,,,,,,,,,,,,75.75115299999015,76.7633186000021,76.74681159999454,77.36191449999751,77.36191449999751,None,78.58739950000017,None,right,0.5401173999998719,78.58739950000017,None,79.14633669999603,None,left,0.10272950000944547,79.14633669999603,None,,,,,,,,,,,errorPics,001,2022-06-14_17h52.29.952,ABstudy,2022.1.4,59.94129350195492,
AB,Lag1_T1A_T2P,1,A,P,6,7,5,5,12,None,Did you see the ?,0.2,0.016,JPG\,shirt02,match,screw02,condom,blueberry01,pineapple01a,blender,watch02a,button01,comb02a,dice05a,measuringcup01,None,None,None,None,None,None,shirt02,match,screw02,condom,blueberry01,pineapple01a,sewingmachine01a,watch02a,button01,comb02a,dice05a,measuringcup01,lipstick02a,printer02,carrot01,watermelon01,0,15,15,389,,,,,,,,,,,,,,,,,,,,,79.28991300000052,80.29657029999362,80.27995339999325,80.91116350000084,80.91116350000084,None,81.99860629999603,83.01303419999022,right,1.5126118999905884,81.99860629999603,None,83.52969219999795,None,left,0.0631541000038851,83.52969219999795,None,,,,,,,,,,,errorPics,001,2022-06-14_17h52.29.952,ABstudy,2022.1.4,59.94129350195492,
AB,Lag1_T1P_T2P,1,P,P,5,6,4,3,9,seal,Did you see the seal?,0.2,0.016,JPG\,watermelon01,banana01,ring01,pencil01,seal,blender,cucumber,thermometer02b,key01,None,None,None,None,None,None,None,None,seal,watermelon01,banana01,ring01,pencil01,tomato01,speaker04,cucumber,thermometer02b,key01,condom,violin,spoon01,clock04,dice05a,pen04b,mushroom01,0,16,16,116,,,,,,,,,,,,,,,,,,,,,83.61432100000093,84.62972050000099,84.61301309999544,85.23406740000064,85.23406740000064,None,86.24630980000074,None,right,0.5080044999922393,86.24630980000074,None,86.77973699998984,None,left,0.09952310001244769,86.77973699998984,None,,,,,,,,,,,errorPics,001,2022-06-14_17h52.29.952,ABstudy,2022.1.4,59.94129350195492,
AB,Lag5_T1P_T2P,5,P,P,5,10,4,3,13,xylophone,Did you see the xylophone?,0.2,0.016,JPG\,printer02,leaf02a,cauliflower01,sock01a,xylophone,paintbrush01,ruler05,orange,belt02a,blender,key01,match,cigarette,None,None,None,None,xylophone,printer02,leaf02a,cauliflower01,sock01a,earrings01,paintbrush01,ruler05,orange,belt02a,shirt02,key01,match,cigarette,scissors01,envelope03a,blueberry01,0,17,17,228,,,,,,,,,,,,,,,,,,,,,86.89950109999336,87.91291430000274,87.89632129999518,88.52246829999785,88.52246829999785,None,89.60580469999695,None,right,0.5029919000080554,89.60580469999695,None,90.12955399999919,None,left,0.0788005000067642,90.12955399999919,None,,,,,,,,,,,errorPics,001,2022-06-14_17h52.29.952,ABstudy,2022.1.4,59.94129350195492,
AB,Lag1_T1P_T2P,1,P,P,6,7,5,5,12,nose,Did you see the nose?,0.2,0.016,JPG\,scissors01,balloon01b,eraser,feather03a,banana01,nose,blender,calculator01,thermometer02b,strawberry,pear01,carrot01,None,None,None,None,None,nose,scissors01,balloon01b,eraser,feather03a,banana01,candle01,measuringcup01,calculator01,thermometer02b,strawberry,pear01,carrot01,globe,baseball01a,leaf02a,spoon01,0,18,18,112,,,,,,,,,,,,,,,,,,,,,90.23184480000054,91.24626939999871,91.22956330000306,91.86338629999955,91.86338629999955,None,92.87583959999029,None,right,0.7190768000000389,92.87583959999029,None,93.61292359999788,None,left,0.09285190000082366,93.61292359999788,None,,,,,,,,,,,errorPics,001,2022-06-14_17h52.29.952,ABstudy,2022.1.4,59.94129350195492,
AB,Lag5_T1A_T2A,5,A,A,7,12,6,4,16,None,Did you see the ?,0.2,0.016,JPG\,rice,watermelon01,tableknife02,scarf,computerkeyboard02,cauliflower01,battery02b,binoculars01b,book01b,sandal,sponge01,microscope,tomato01,fork03c,thermometer02b,apple07,None,None,rice,watermelon01,tableknife02,scarf,computerkeyboard02,cauliflower01,battery02b,binoculars01b,book01b,sandal,sponge01,microscope,tomato01,fork03c,thermometer02b,apple07,0,19,19,460,,,,,,,,,,,,,,,,,,,,,93.72950519999722,94.72979389999819,94.71322579999105,95.33217850000074,95.33217850000074,None,96.36224580000271,None,right,0.52194910000253,96.36224580000271,None,96.91303789999802,None,left,0.07897800000500865,96.91303789999802,None,,,,,,,,,,,errorPics,001,2022-06-14_17h52.29.952,ABstudy,2022.1.4,59.94129350195492,
AB,Lag5_T1P_T2A,5,P,A,7,12,6,3,15,helmet,Did you see the helmet?,0.2,0.016,JPG\,fork03c,belt02a,grape01,computerkeyboard02,lemon02,printer02,skihelmet01,toiletpaper01a,toaster01,lipstick02a,book01b,blueberry01,spoon01,apple07,avocado01,None,None,skihelmet01,fork03c,belt02a,grape01,computerkeyboard02,lemon02,printer02,broom01,toiletpaper01a,toaster01,lipstick02a,book01b,blueberry01,spoon01,apple07,avocado01,greenolive,0,20,20,332,,,,,,,,,,,,,,,,,,,,,97.0226462999999,98.02967190000345,98.01318670000182,98.61810179999156,98.61810179999156,None,99.7020549000008,None,right,0.4822673000016948,99.7020549000008,None,100.21278989998973,None,left,0.09244379999290686,100.21278989998973,None,,,,,,,,,,,errorPics,001,2022-06-14_17h52.29.952,ABstudy,2022.1.4,59.94129350195492,
AB,Lag5_T1P_T2P,5,P,P,5,10,4,4,14,Ice cube,Did you see the Ice cube?,0.2,0.016,JPG\,cigarette,fork03c,greenolive,broccoli01a,icecube02,tennisball01b,balloon01b,leaf02a,ruler05,blender,clock01a,strawberry,envelope03a,bowl02a,None,None,None,icecube02,cigarette,fork03c,greenolive,broccoli01a,avocado01,tennisball01b,balloon01b,leaf02a,ruler05,fan,clock01a,strawberry,envelope03a,bowl02a,teabag,medal02b,0,21,21,235,,,,,,,,,,,,,,,,,,,,,100.3293052999943,101.32943579999846,101.31285299999581,101.91267869999865,101.91267869999865,None,102.93265190000238,None,right,0.5415421000070637,102.93265190000238,None,103.49606350000249,None,left,0.08509849999973085,103.49606350000249,None,,,,,,,,,,,errorPics,001,2022-06-14_17h52.29.952,ABstudy,2022.1.4,59.94129350195492,
AB,Lag1_T1P_T2P,1,P,P,6,7,5,3,10,spider web,Did you see the spider web?,0.2,0.016,JPG\,toaster01,chain01,sponge01,baseball01a,carrot01,spiderweb,blender,iron01b,grape01,brick,None,None,None,None,None,None,None,spiderweb,toaster01,chain01,sponge01,baseball01a,carrot01,belt02a,book01b,iron01b,grape01,brick,celery,onion,mushroom01,toothbrush03b,lipstick02a,screw02,0,22,22,72,,,,,,,,,,,,,,,,,,,,,103.61689779999142,104.62938610000128,104.61274199999752,105.23624859999109,105.23624859999109,None,106.32506039999134,107.3291082999931,right,1.1182425000006333,106.32506039999134,None,107.46247969999968,None,left,0.08045550000679214,107.46247969999968,None,,,,,,,,,,,errorPics,001,2022-06-14_17h52.29.952,ABstudy,2022.1.4,59.94129350195492,
AB,Lag5_T1P_T2A,5,P,A,7,12,6,4,16,Bear,Did you see the Bear?,0.2,0.016,JPG\,comb02a,key01,medal02b,battery02b,lighter01,microscope,grizzly,sandal,ruler05,cellphone,computerkeyboard02,calculator01,bagel,clock04,cucumber,avocado01,None,grizzly,comb02a,key01,medal02b,battery02b,lighter01,microscope,watermelon01,sandal,ruler05,cellphone,computerkeyboard02,calculator01,bagel,clock04,cucumber,avocado01,0,23,23,320,,,,,,,,,,,,,,,,,,,,,107.61358569998993,108.61284709999745,108.61284709999745,109.33372919999238,109.33372919999238,None,110.36069059999136,None,right,0.6851732999930391,110.36069059999136,None,111.06288699999277,None,left,0.07849140001053456,111.06288699999277,None,,,,,,,,,,,errorPics,001,2022-06-14_17h52.29.952,ABstudy,2022.1.4,59.94129350195492,
AB,Lag1_T1A_T2A,1,A,A,7,8,6,5,13,None,Did you see the ?,0.2,0.016,JPG\,thermometer02b,candle08b,comb02a,toothbrush03b,brick,computerkeyboard02,key01,pineapple01a,candy,bowl02a,clock04,stapler03a,teabag,None,None,None,None,None,thermometer02b,candle08b,comb02a,toothbrush03b,brick,computerkeyboard02,key01,pineapple01a,candy,bowl02a,clock04,stapler03a,teabag,medal02b,balloon01b,banana01,0,24,24,450,,,,,,,,,,,,,,,,,,,,,111.1625808999961,112.16259189999255,112.14593679999234,112.76496689999476,112.76496689999476,None,113.8302357999928,114.82923580000352,right,1.147144800008391,113.8302357999928,None,114.99591859999055,None,left,0.07293779999599792,114.99591859999055,None,,,,,,,,,,,errorPics,001,2022-06-14_17h52.29.952,ABstudy,2022.1.4,59.94129350195492,
AB,Lag5_T1A_T2P,5,A,P,6,11,5,5,16,None,Did you see the ?,0.2,0.016,JPG\,avocado01,stapler03a,match,cauliflower01,paintbrush01,clock01a,ruler05,cd,balloon01b,cellphone,blender,pear01,toaster01,sponge01,orange,blueberry01,None,None,avocado01,stapler03a,match,cauliflower01,paintbrush01,clock01a,ruler05,cd,balloon01b,cellphone,watch02a,pear01,toaster01,sponge01,orange,blueberry01,0,25,25,412,,,,,,,,,,,,,,,,,,,,,115.10456659999909,116.11257420000038,116.07919140000013,116.71353290000116,116.71353290000116,None,117.71460300000035,None,right,0.6613791999989189,117.71460300000035,None,118.39587729999039,None,left,0.06875469999795314,118.39587729999039,None,,,,,,,,,,,errorPics,001,2022-06-14_17h52.29.952,ABstudy,2022.1.4,59.94129350195492,
AB,Lag1_T1P_T2A,1,P,A,5,6,4,4,10,flower,Did you see the flower?,0.2,0.016,JPG\,broom01,globe,cellphone,tableknife02,daffodil,scissors01,ring01,umbrella04,rice,toaster01,None,None,None,None,None,None,None,daffodil,broom01,globe,cellphone,tableknife02,cauliflower01,scissors01,ring01,umbrella04,rice,toaster01,cigarette,grape01,microscope,cucumber,lamp04a,brick,0,26,26,275,,,,,,,,,,,,,,,,,,,,,118.49776879999263,119.51255050000327,119.49581639999815,120.1142814999912,120.1142814999912,None,121.22829189999902,None,right,0.5268313999986276,121.22829189999902,None,121.77916779999214,None,left,0.05968270001176279,121.77916779999214,None,,,,,,,,,,,errorPics,001,2022-06-14_17h52.29.952,ABstudy,2022.1.4,59.94129350195492,
AB,Lag5_T1P_T2P,5,P,P,8,13,7,3,16,mask,Did you see the mask?,0.2,0.016,JPG\,measuringcup01,dice05a,greenolive,lipstick02a,feather03a,balloon01b,lighter01,masquerademask01,carrot01,plate01b,microscope,brick,blender,screw02,speaker04,spoon01,None,masquerademask01,measuringcup01,dice05a,greenolive,lipstick02a,feather03a,balloon01b,lighter01,calculator01,carrot01,plate01b,microscope,brick,thermometer02b,screw02,speaker04,spoon01,0,27,27,247,,,,,,,,,,,,,,,,,,,,,121.86242649999622,122.86229009999079,122.84570669999812,123.47696169999836,123.47696169999836,None,124.553619600003,None,right,0.44059900000866037,124.553619600003,None,125.01244379999116,None,left,0.06883659999584779,125.01244379999116,None,,,,,,,,,,,errorPics,001,2022-06-14_17h52.29.952,ABstudy,2022.1.4,59.94129350195492,
AB,Lag5_T1P_T2P,5,P,P,5,10,4,5,15,Ipad,Did you see the Ipad?,0.2,0.016,JPG\,fork03c,toothbrush03b,cellphone,fan,ipad02,clock01a,ring01,eraser,sunglasses04,blender,violin,earrings01,blueberry01,pear01,pencil01,None,None,ipad02,fork03c,toothbrush03b,cellphone,fan,candle08b,clock01a,ring01,eraser,sunglasses04,thermometer02b,violin,earrings01,blueberry01,pear01,pencil01,key01,0,28,28,197,,,,,,,,,,,,,,,,,,,,,125.11586910000187,126.12937059999967,126.11259340000106,126.7164036000031,126.7164036000031,None,127.80935899999167,None,right,0.6157667000079527,127.80935899999167,None,128.4456918999931,None,left,0.051293700002133846,128.4456918999931,None,,,,,,,,,,,errorPics,001,2022-06-14_17h52.29.952,ABstudy,2022.1.4,59.94129350195492,
AB,Lag1_T1P_T2A,1,P,A,5,6,4,5,11,panda,Did you see the panda?,0.2,0.016,JPG\,iron01b,orange,bowl02a,potato02b,panda,pencil01,key01,candle08b,celery,tableknife02,pen04b,None,None,None,None,None,None,panda,iron01b,orange,bowl02a,potato02b,cauliflower01,pencil01,key01,candle08b,celery,tableknife02,pen04b,belt02a,ring01,rice,lemon02,tomato01,0,29,29,303,,,,,,,resources\JPG\bowl02a.jpg,resources\JPG\bowl02a.jpg,resources\JPG\bowl02a.jpg,resources\JPG\bowl02a.jpg,resources\JPG\bowl02a.jpg,resources\JPG\bowl02a.jpg,resources\JPG\bowl02a.jpg,resources\JPG\bowl02a.jpg,,,,,,,128.529011599996,129.52898679999635,129.51230829999258,130.1252802999952,130.1252802999952,None,131.23513040000398,None,right,0.5407542000029935,131.23513040000398,None,131.79565569999977,None,left,0.048415299999760464,131.79565569999977,None,,,,,,,,,,,errorPics,001,2022-06-14_17h52.29.952,ABstudy,2022.1.4,59.94129350195492,
AB,Lag1_T1P_T2P,1,P,P,7,8,6,4,12,beer bottle,Did you see the beer bottle?,0.2,0.016,JPG\,toaster01,scarf,toiletpaper01a,calculator01,violin,sewingmachine01a,beerbottle,blender,strawberry,balloon01b,earrings01,eraser,None,None,None,None,None,beerbottle,toaster01,scarf,toiletpaper01a,calculator01,violin,sewingmachine01a,fan,teabag,strawberry,balloon01b,earrings01,eraser,lemon02,rice,ring01,shirt02,0,30,30,97,,,,,,,,,,,,,,,,,,,,,131.86604880000232,132.87917719999678,132.8626430000004,133.4831806000002,133.4831806000002,None,134.53875219999463,None,right,0.5024114999978337,134.53875219999463,None,135.0622008999926,None,left,0.0615381000097841,135.0622008999926,None,,,,,,,,,,,errorPics,001,2022-06-14_17h52.29.952,ABstudy,2022.1.4,59.94129350195492,
AB,Lag1_T1P_T2P,1,P,P,6,7,5,3,10,elephant,Did you see the elephant?,0.2,0.016,JPG\,clock01a,grape01,plate01b,key01,screwdriver04b,africanelephant,blender,iron01b,toothbrush03b,comb02a,None,None,None,None,None,None,None,africanelephant,clock01a,grape01,plate01b,key01,screwdriver04b,feather03a,pineapple01a,iron01b,toothbrush03b,comb02a,broom01,toaster01,pizza,garlic01a,match,ashtray01,0,31,31,31,,,,,,,,,,,,,,,,,,,,,135.14550139999483,136.14556750000338,136.12887459999183,136.74563799999305,136.74563799999305,None,137.82759899999655,None,right,0.4330801000032807,137.82759899999655,None,138.27882859999954,None,left,0.059248500008834526,138.27882859999954,None,,,,,,,,,,,errorPics,001,2022-06-14_17h52.29.952,ABstudy,2022.1.4,59.94129350195492,
AB,Lag5_T1P_T2P,5,P,P,8,13,7,4,17,rake,Did you see the rake?,0.2,0.016,JPG\,brick,eraser,cucumber,ashtray01,thermometer02b,binoculars01b,lipstick02a,bowrake,grape01,earrings01,battery02b,iron01b,blender,avocado01,bowl02a,watch02a,0,bowrake,brick,eraser,cucumber,ashtray01,thermometer02b,binoculars01b,lipstick02a,screwdriver04b,grape01,earrings01,battery02b,iron01b,dice05a,avocado01,bowl02a,watch02a,0,32,32,229,,,,,,,,,,,,,,,,,,,,,138.36303439999756,139.3623942999984,139.3623942999984,139.9785969999939,139.9785969999939,None,141.02076970000053,None,right,0.6430070000060368,141.02076970000053,None,141.69549649998953,None,left,0.04299390000232961,141.69549649998953,None,,,,,,,,,,,errorPics,001,2022-06-14_17h52.29.952,ABstudy,2022.1.4,59.94129350195492,
AB,Lag5_T1P_T2P,5,P,P,7,12,6,4,16,Pirate flag,Did you see the Pirate flag?,0.2,0.016,JPG\,fan,tomato01,candy,screwdriver04b,umbrella04,cd,pirateflag,apple07,button01,plate01b,earrings01,blender,clock01a,envelope03a,clock04,cigarette,None,pirateflag,fan,tomato01,candy,screwdriver04b,umbrella04,cd,thermometer02b,apple07,button01,plate01b,earrings01,lighter01,clock01a,envelope03a,clock04,cigarette,0,33,33,238,,,,,,,resources\JPG\umbrella04.jpg,resources\JPG\umbrella04.jpg,resources\JPG\umbrella04.jpg,resources\JPG\umbrella04.jpg,resources\JPG\umbrella04.jpg,resources\JPG\umbrella04.jpg,resources\JPG\umbrella04.jpg,resources\JPG\umbrella04.jpg,resources\JPG\umbrella04.jpg,resources\JPG\umbrella04.jpg,resources\JPG\umbrella04.jpg,,,,141.7691416000016,142.7791750000033,142.74571709999873,143.37002029998985,143.37002029998985,None,144.42110039999534,None,right,0.45595639999373816,144.42110039999534,None,144.8955183999933,None,left,0.06380680001166184,144.8955183999933,None,,,,,,,,,,,errorPics,001,2022-06-14_17h52.29.952,ABstudy,2022.1.4,59.94129350195492,
AB,Lag5_T1P_T2A,5,P,A,6,11,5,3,14,toy truck,Did you see the toy truck?,0.2,0.016,JPG\,globe,belt02a,sponge01,violin,fork03c,toytanktruck,clock01a,microscope,balloon01b,scarf,teabag,pen04b,brick,earrings01,None,None,None,toytanktruck,globe,belt02a,sponge01,violin,fork03c,tomato01,clock01a,microscope,balloon01b,scarf,teabag,pen04b,brick,earrings01,speaker04,screwdriver04b,0,34,34,311,,,,,,,resources\JPG\toytanktruck.jpg,resources\JPG\toytanktruck.jpg,resources\JPG\toytanktruck.jpg,,,,,,,,,,,,144.98203240000294,145.99585639999714,145.97904949999065,146.61399349999556,146.61399349999556,None,147.65832089999458,None,right,0.3911497000080999,147.65832089999458,None,148.07901570000104,None,left,0.0461152000061702,148.07901570000104,None,,,,,,,,,,,errorPics,001,2022-06-14_17h52.29.952,ABstudy,2022.1.4,59.94129350195492,
AB,Lag5_T1A_T2P,5,A,P,7,12,6,4,16,None,Did you see the ?,0.2,0.016,JPG\,printer02,envelope03a,potato02b,calculator01,tableknife02,cigarette,ashtray01,ruler05,broom01,greenolive,candle08b,blender,strawberry,candle01,condom,tennisball01b,None,None,printer02,envelope03a,potato02b,calculator01,tableknife02,cigarette,ashtray01,ruler05,broom01,greenolive,candle08b,battery02b,strawberry,candle01,condom,tennisball01b,0,35,35,421,,,,,,,,,,,,,,,,,,,,,148.14525590000267,149.14683220000006,149.1289611999964,149.75425549999636,149.75425549999636,None,150.85955719999038,None,right,0.5163866000075359,150.85955719999038,None,151.39532229999895,None,left,0.05571780000173021,151.39532229999895,None,,,,,,,,,,,errorPics,001,2022-06-14_17h52.29.952,ABstudy,2022.1.4,59.94129350195492,
AB,Lag1_T1A_T2A,1,A,A,6,7,5,5,12,None,Did you see the ?,0.2,0.016,JPG\,hammer01,sponge01,toaster01,cherry01,feather03a,mushroom01,measuringcup01,pencil01,tennisball01b,brick,clock04,medal02b,None,None,None,None,None,None,hammer01,sponge01,toaster01,cherry01,feather03a,mushroom01,measuringcup01,pencil01,tennisball01b,brick,clock04,medal02b,teabag,garlic01a,envelope03a,orange,0,36,36,448,,,,,,,,,,,,,,,,,,,,,151.4882418999914,152.49545370000124,152.47890170000028,153.08032690000255,153.08032690000255,None,154.2021384999971,None,right,0.5190258000075119,154.2021384999971,None,154.74530599999707,None,left,0.05461390000709798,154.74530599999707,None,,,,,,,,,,,errorPics,001,2022-06-14_17h52.29.952,ABstudy,2022.1.4,59.94129350195492,
AB,Lag5_T1P_T2P,5,P,P,8,13,7,5,18,sword,Did you see the sword?,0.2,0.016,JPG\,pineapple01a,leaf02a,grape01,toiletpaper01a,match,tennisball01b,spoon01,cutlass,ruler05,measuringcup01,ring01,lemon02,blender,pizza,potato02b,eraser,0,cutlass,pineapple01a,leaf02a,grape01,toiletpaper01a,match,tennisball01b,spoon01,chain01,ruler05,measuringcup01,ring01,lemon02,dice05a,pizza,potato02b,eraser,0,37,37,234,,,,,,,,,,,,,,,,,,,,,154.83552749999217,155.84555840000394,155.8287924999895,156.44161039999744,156.44161039999744,None,157.58639309999126,None,right,0.44282680000469554,157.58639309999126,None,158.0455224999896,None,left,0.055061499995645136,158.0455224999896,None,,,,,,,,,,,errorPics,001,2022-06-14_17h52.29.952,ABstudy,2022.1.4,59.94129350195492,
AB,Lag5_T1P_T2P,5,P,P,8,13,7,3,16,Bacon,Did you see the Bacon?,0.2,0.016,JPG\,violin,pizza,toothbrush03b,pineapple01a,banana01,ashtray01,candy,bacon,clock04,sock01a,microscope,speaker04,blender,sunglasses04,lipstick02a,blueberry01,None,bacon,violin,pizza,toothbrush03b,pineapple01a,banana01,ashtray01,candy,staples,clock04,sock01a,microscope,speaker04,calculator01,sunglasses04,lipstick02a,blueberry01,0,38,38,253,,,,,,,,,,,,,,,,,,,,,158.19034790000296,159.19552290000138,159.17878989999008,159.79395700000168,159.79395700000168,None,160.90520739999192,None,right,0.35331000000587665,160.90520739999192,None,161.27852110000094,None,left,0.07781669999531005,161.27852110000094,None,,,,,,,,,,,errorPics,001,2022-06-14_17h52.29.952,ABstudy,2022.1.4,59.94129350195492,
AB,Lag5_T1A_T2P,5,A,P,6,11,5,4,15,None,Did you see the ?,0.2,0.016,JPG\,celery,earrings01,key01,sunglasses04,leaf02a,toothbrush03b,dice05a,tennisball01b,scarf,globe,blender,scissors01,ring01,battery02b,feather03a,None,None,None,celery,earrings01,key01,sunglasses04,leaf02a,toothbrush03b,dice05a,tennisball01b,scarf,globe,paintbrush01,scissors01,ring01,battery02b,feather03a,bagel,0,39,39,434,,,,,,,resources\JPG\earrings01.jpg,resources\JPG\earrings01.jpg,resources\JPG\earrings01.jpg,resources\JPG\earrings01.jpg,resources\JPG\earrings01.jpg,resources\JPG\earrings01.jpg,resources\JPG\earrings01.jpg,resources\JPG\earrings01.jpg,resources\JPG\earrings01.jpg,resources\JPG\earrings01.jpg,,,,,161.38131129999238,162.3950743000023,162.3784572000004,163.00367859999824,163.00367859999824,None,164.02667459999793,None,right,0.5438532999978634,164.02667459999793,None,164.5951642,None,left,0.047188199998345226,164.5951642,None,,,,,,,,,,,errorPics,001,2022-06-14_17h52.29.952,ABstudy,2022.1.4,59.94129350195492,
AB,Lag5_T1P_T2P,5,P,P,6,11,5,4,15,Bumper car,Did you see the Bumper car?,0.2,0.016,JPG\,eraser,measuringcup01,chain01,bowl02a,ring01,bumpercar,stapler03a,ruler05,cauliflower01,celery,blender,sunglasses04,greenolive,candy,strawberry,None,None,bumpercar,eraser,measuringcup01,chain01,bowl02a,ring01,rice,stapler03a,ruler05,cauliflower01,celery,microscope,sunglasses04,greenolive,candy,strawberry,paintbrush01,0,40,40,151,,,,,,,resources\JPG\bowl02a.jpg,resources\JPG\bowl02a.jpg,resources\JPG\bowl02a.jpg,resources\JPG\bowl02a.jpg,resources\JPG\bowl02a.jpg,resources\JPG\bowl02a.jpg,resources\JPG\bowl02a.jpg,resources\JPG\bowl02a.jpg,resources\JPG\bowl02a.jpg,resources\JPG\bowl02a.jpg,resources\JPG\bowl02a.jpg,,,,164.6662295999995,165.67840259999502,165.66178539999237,166.27837859999272,166.27837859999272,None,167.34845510000014,None,right,0.879145700004301,167.34845510000014,None,168.24512089999916,None,left,0.11509390000719577,168.24512089999916,None,,,,,,,,,,,errorPics,001,2022-06-14_17h52.29.952,ABstudy,2022.1.4,59.94129350195492,
AB,Lag5_T1P_T2P,5,P,P,5,10,4,5,15,funnel,Did you see the funnel?,0.2,0.016,JPG\,pineapple01a,tennisball01b,computerkeyboard02,feather03a,funnel,stapler03a,violin,blueberry01,medal02b,blender,greenolive,screwdriver04b,potato02b,fork03c,bagel,None,None,funnel,pineapple01a,tennisball01b,computerkeyboard02,feather03a,belt02a,stapler03a,violin,blueberry01,medal02b,umbrella04,greenolive,screwdriver04b,potato02b,fork03c,bagel,avocado01,0,41,41,156,,,,,,,,,,,,,,,,,,,,,168.37839019999956,169.37833809999574,169.36175739999453,169.98199439999007,169.98199439999007,None,171.09332289999293,None,right,0.5154242000135127,171.09332289999293,None,171.6283506000036,None,left,0.06313100000261329,171.6283506000036,None,,,,,,,,,,,errorPics,001,2022-06-14_17h52.29.952,ABstudy,2022.1.4,59.94129350195492,
AB,Lag5_T1P_T2A,5,P,A,6,11,5,3,14,Whiteout,Did you see the Whiteout?,0.2,0.016,JPG\,pizza,watch02a,greenolive,cucumber,match,whiteout,scissors01,broom01,globe,cherry01,ring01,cigarette,microscope,cellphone,None,None,None,whiteout,pizza,watch02a,greenolive,cucumber,match,violin,scissors01,broom01,globe,cherry01,ring01,cigarette,microscope,cellphone,speaker04,onion,0,42,42,337,,,,,,,,,,,,,,,,,,,,,171.71943610000017,172.72865319999983,172.7119623000035,173.34428779999143,173.34428779999143,None,174.35944529999688,175.3615751999896,right,4.644929499991122,174.35944529999688,None,179.02832719999424,None,left,0.07897149999917019,179.02832719999424,None,,,,,,,,,,,errorPics,001,2022-06-14_17h52.29.952,ABstudy,2022.1.4,59.94129350195492,
AB,Lag5_T1P_T2A,5,P,A,6,11,5,5,16,World map,Did you see the World map?,0.2,0.016,JPG\,cigarette,ruler05,banana01,strawberry,clock01a,worldmap,spoon01,blueberry01,battery02b,pineapple01a,chain01,paintbrush01,candy,pen04b,teabag,bowl02a,None,worldmap,cigarette,ruler05,banana01,strawberry,clock01a,plate01b,spoon01,blueberry01,battery02b,pineapple01a,chain01,paintbrush01,candy,pen04b,teabag,bowl02a,0,43,43,312,,,,,,,resources\JPG\ruler05.jpg,resources\JPG\ruler05.jpg,resources\JPG\ruler05.jpg,resources\JPG\ruler05.jpg,resources\JPG\ruler05.jpg,resources\JPG\ruler05.jpg,resources\JPG\ruler05.jpg,resources\JPG\ruler05.jpg,resources\JPG\ruler05.jpg,,,,,,179.17107119999127,180.17815669999982,180.1614525999903,180.76344169999356,180.76344169999356,None,181.8369279999897,None,right,0.43204439998953603,181.8369279999897,None,182.29485169998952,None,left,0.048458899997058325,182.29485169998952,None,,,,,,,,,,,errorPics,001,2022-06-14_17h52.29.952,ABstudy,2022.1.4,59.94129350195492,
AB,Lag1_T1P_T2P,1,P,P,8,9,7,3,12,mail box,Did you see the mail box?,0.2,0.016,JPG\,paintbrush01,dice05a,watermelon01,broccoli01a,hammer01,leaf02a,match,mailbox01,blender,fan,lipstick02a,grape01,None,None,None,None,None,mailbox01,paintbrush01,dice05a,watermelon01,broccoli01a,hammer01,leaf02a,match,tennisball01b,lemon02,fan,lipstick02a,grape01,envelope03a,sponge01,condom,orange,0,44,44,20,,,,,,,,,,,,,,,,,,,,,182.36436059999687,183.37819659999514,183.36156869999832,183.9645251000038,183.9645251000038,None,185.07139169999573,186.07851469999878,right,1.1153944999969099,185.07139169999573,None,186.21174220000103,None,left,0.08090780000202358,186.21174220000103,None,,,,,,,,,,,errorPics,001,2022-06-14_17h52.29.952,ABstudy,2022.1.4,59.94129350195492,
AB,Lag1_T1P_T2P,1,P,P,7,8,6,5,13,dream catcher,Did you see the dream catcher?,0.2,0.016,JPG\,clock01a,cellphone,toaster01,toothbrush03b,cauliflower01,microscope,dreamcatcher,blender,scarf,clock04,sponge01,iron01b,watch02a,None,None,None,None,dreamcatcher,clock01a,cellphone,toaster01,toothbrush03b,cauliflower01,microscope,comb02a,paintbrush01,scarf,clock04,sponge01,iron01b,watch02a,celery,ring01,ashtray01,0,45,45,81,,,,,,,,,,,,,,,,,,,,,186.31865239999024,187.32844189999742,187.31165390000388,187.93297979999625,187.93297979999625,None,189.00659730000189,None,right,0.4188501000026008,189.00659730000189,None,189.4448129999946,None,left,0.06048749999899883,189.4448129999946,None,,,,,,,,,,,errorPics,001,2022-06-14_17h52.29.952,ABstudy,2022.1.4,59.94129350195492,
AB,Lag5_T1P_T2P,5,P,P,6,11,5,4,15,shovel,Did you see the shovel?,0.2,0.016,JPG\,carrot01,watch02a,clock04,microscope,toiletpaper01a,shovel01,umbrella04,ring01,brick,watermelon01,blender,pencil01,measuringcup01,balloon01b,computerkeyboard02,None,None,shovel01,carrot01,watch02a,clock04,microscope,toiletpaper01a,potato02b,umbrella04,ring01,brick,watermelon01,cd,pencil01,measuringcup01,balloon01b,computerkeyboard02,tennisball01b,0,46,46,186,,,,,,,,,,,,,,,,,,,,,189.53039939999871,190.5449016999919,190.52814179999405,191.13906639999186,191.13906639999186,None,192.15087669999048,None,left,0.09200260000943672,192.15087669999048,None,192.2613813999924,None,right,0.8583943999983603,192.2613813999924,None,,,,,,,,,,,errorPics,001,2022-06-14_17h52.29.952,ABstudy,2022.1.4,59.94129350195492,
AB,Lag1_T1P_T2A,1,P,A,6,7,5,3,10,Fish skeleton,Did you see the Fish skeleton?,0.2,0.016,JPG\,toaster01,garlic01a,stapler03a,fan,comb02a,fishskeleton,orange,watch02a,onion,blueberry01,None,None,None,None,None,None,None,fishskeleton,toaster01,garlic01a,stapler03a,fan,comb02a,apple07,orange,watch02a,onion,blueberry01,toiletpaper01a,fork03c,bagel,pineapple01a,scarf,eraser,0,47,47,297,,,,,,,,,,,,,,,,,,,,,193.15344379999442,194.16146299999673,194.1453438000026,194.77202219999162,194.77202219999162,None,195.7920662999968,None,right,0.43743150000227615,195.7920662999968,None,196.2612972999923,None,left,0.06840480001119431,196.2612972999923,None,,,,,,,,,,,errorPics,001,2022-06-14_17h52.29.952,ABstudy,2022.1.4,59.94129350195492,
AB,Lag5_T1A_T2A,5,A,A,6,11,5,3,14,None,Did you see the ?,0.2,0.016,JPG\,condom,candy,envelope03a,microscope,pencil01,leaf02a,scissors01,watermelon01,grape01,staples,pineapple01a,hammer01,celery,thermometer02b,None,None,None,None,condom,candy,envelope03a,microscope,pencil01,leaf02a,scissors01,watermelon01,grape01,staples,pineapple01a,hammer01,celery,thermometer02b,ring01,sewingmachine01a,0,48,48,463,,,,,,,,,,,,,,,,,,,,,196.36566799999855,197.37823989999015,197.3614658000006,197.97100239999418,197.97100239999418,None,199.11322749999817,200.1278680999967,right,1.3443311000009999,199.11322749999817,None,200.4779545999918,None,left,0.11639769999601413,200.4779545999918,None,,,,,,,,,,,errorPics,001,2022-06-14_17h52.29.952,ABstudy,2022.1.4,59.94129350195492,
AB,Lag5_T1P_T2P,5,P,P,7,12,6,5,17,flamingo,Did you see the flamingo?,0.2,0.016,JPG\,ruler05,belt02a,rice,screwdriver04b,candle01,apple07,flamingo,pear01,feather03a,match,thermometer02b,blender,lemon02,violin,medal02b,pineapple01a,0,flamingo,ruler05,belt02a,rice,screwdriver04b,candle01,apple07,candle08b,pear01,feather03a,match,thermometer02b,printer02,lemon02,violin,medal02b,pineapple01a,0,49,49,200,,,,,,,resources\JPG\ruler05.jpg,resources\JPG\ruler05.jpg,resources\JPG\ruler05.jpg,resources\JPG\ruler05.jpg,resources\JPG\ruler05.jpg,resources\JPG\ruler05.jpg,resources\JPG\ruler05.jpg,resources\JPG\ruler05.jpg,resources\JPG\ruler05.jpg,resources\JPG\ruler05.jpg,resources\JPG\ruler05.jpg,resources\JPG\ruler05.jpg,resources\JPG\ruler05.jpg,,200.61179609999817,201.61130889999913,201.61130889999913,202.1167007999902,202.1167007999902,None,203.1342214999895,None,right,0.4928350000118371,203.1342214999895,None,203.64453979999234,None,left,0.09030980001261923,203.64453979999234,None,,,,,,,,,,,errorPics,001,2022-06-14_17h52.29.952,ABstudy,2022.1.4,59.94129350195492,
AB,Lag1_T1P_T2P,1,P,P,6,7,5,4,11,bowling pin,Did you see the bowling pin?,0.2,0.016,JPG\,strawberry,leaf02a,clock04,candle01,avocado01,bowlingpin,blender,earrings01,ring01,lemon02,fork03c,None,None,None,None,None,None,bowlingpin,strawberry,leaf02a,clock04,candle01,avocado01,paintbrush01,orange,earrings01,ring01,lemon02,fork03c,scissors01,cauliflower01,tableknife02,tennisball01b,thermometer02b,0,50,50,8,,,,,,,,,,,,,,,,,,,,,203.7622446000023,204.76129739999305,204.76129739999305,205.3812981999945,205.3812981999945,None,206.38931529999536,None,right,0.3759854000090854,206.38931529999536,None,206.79496679999284,None,left,0.05722119999700226,206.79496679999284,None,,,,,,,,,,,errorPics,001,2022-06-14_17h52.29.952,ABstudy,2022.1.4,59.94129350195492,
AB,Lag5_T1P_T2A,5,P,A,5,10,4,3,13,martini glass,Did you see the martini glass?,0.2,0.016,JPG\,brick,eraser,cucumber,ashtray01,martiniglass01b,binoculars01b,lipstick02a,screwdriver04b,grape01,earrings01,battery02b,iron01b,dice05a,None,None,None,None,martiniglass01b,brick,eraser,cucumber,ashtray01,thermometer02b,binoculars01b,lipstick02a,screwdriver04b,grape01,earrings01,battery02b,iron01b,dice05a,avocado01,bowl02a,watch02a,0,51,51,324,,,,,,,,,,,,,,,,,,,,,206.9134711999941,207.92780109999876,207.91115899999568,208.52766729998984,208.52766729998984,None,209.53447600000072,None,right,0.41979700000956655,209.53447600000072,None,209.97776409999642,None,left,0.047314099996583536,209.97776409999642,None,,,,,,,,,,,errorPics,001,2022-06-14_17h52.29.952,ABstudy,2022.1.4,59.94129350195492,
AB,Lag1_T1P_T2A,1,P,A,7,8,6,3,11,Seagull,Did you see the Seagull?,0.2,0.016,JPG\,toiletpaper01a,mushroom01,medal02b,sandal,rice,cd,seagull,pizza,candle08b,garlic01a,toaster01,None,None,None,None,None,None,seagull,toiletpaper01a,mushroom01,medal02b,sandal,rice,cd,feather03a,pizza,candle08b,garlic01a,toaster01,belt02a,cigarette,violin,lemon02,fork03c,0,52,52,267,,,,,,,,,,,,,,,,,,,,,210.05560479999986,211.06116080000356,211.04452349999337,211.6660145999922,211.6660145999922,None,212.70213639999565,None,right,0.44073079999361653,212.70213639999565,None,213.16096870000183,None,left,0.05614790000254288,213.16096870000183,None,,,,,,,,,,,errorPics,001,2022-06-14_17h52.29.952,ABstudy,2022.1.4,59.94129350195492,
AB,Lag1_T1P_T2P,1,P,P,8,9,7,3,12,Horseshoe,Did you see the Horseshoe?,0.2,0.016,JPG\,cigarette,ruler05,banana01,strawberry,clock01a,plate01b,spoon01,horseshoe,blender,pineapple01a,chain01,paintbrush01,None,None,None,None,None,horseshoe,cigarette,ruler05,banana01,strawberry,clock01a,plate01b,spoon01,blueberry01,battery02b,pineapple01a,chain01,paintbrush01,candy,pen04b,teabag,bowl02a,0,53,53,122,,,,,,,resources\JPG\ruler05.jpg,resources\JPG\ruler05.jpg,resources\JPG\ruler05.jpg,resources\JPG\ruler05.jpg,resources\JPG\ruler05.jpg,resources\JPG\ruler05.jpg,resources\JPG\ruler05.jpg,resources\JPG\ruler05.jpg,resources\JPG\ruler05.jpg,resources\JPG\ruler05.jpg,resources\JPG\ruler05.jpg,resources\JPG\ruler05.jpg,,,213.24717529999907,214.2612672999967,214.24466869999014,214.8466594999918,214.8466594999918,None,215.99016249999113,None,right,0.41754609999770764,215.99016249999113,None,216.42767730000196,None,left,0.0766416999977082,216.42767730000196,None,,,,,,,,,,,errorPics,001,2022-06-14_17h52.29.952,ABstudy,2022.1.4,59.94129350195492,
AB,Lag5_T1A_T2P,5,A,P,8,13,7,4,17,None,Did you see the ?,0.2,0.016,JPG\,clock01a,grape01,plate01b,key01,screwdriver04b,feather03a,pineapple01a,iron01b,toothbrush03b,comb02a,broom01,toaster01,blender,garlic01a,match,ashtray01,0,None,clock01a,grape01,plate01b,key01,screwdriver04b,feather03a,pineapple01a,iron01b,toothbrush03b,comb02a,broom01,toaster01,pizza,garlic01a,match,ashtray01,0,54,54,411,,,,,,,,,,,,,,,,,,,,,216.53336439999111,217.54428989998996,217.5276276999939,218.15117479999026,218.15117479999026,None,219.19093349999457,None,right,0.3734961000154726,219.19093349999457,None,219.5944479000027,None,left,0.05178229999728501,219.5944479000027,None,,,,,,,,,,,errorPics,001,2022-06-14_17h52.29.952,ABstudy,2022.1.4,59.94129350195492,
AB,Lag1_T1P_T2P,1,P,P,8,9,7,4,13,Doughnut,Did you see the Doughnut?,0.2,0.016,JPG\,brick,eraser,cucumber,ashtray01,thermometer02b,binoculars01b,lipstick02a,donut,blender,earrings01,battery02b,iron01b,dice05a,None,None,None,None,donut,brick,eraser,cucumber,ashtray01,thermometer02b,binoculars01b,lipstick02a,screwdriver04b,grape01,earrings01,battery02b,iron01b,dice05a,avocado01,bowl02a,watch02a,0,55,55,39,,,,,,,,,,,,,,,,,,,,,219.6829480000015,220.69428169999446,220.67756579999696,221.29211110000324,221.29211110000324,None,222.39574720000383,None,right,0.3607084999966901,222.39574720000383,None,222.77758840000024,None,left,0.05766619999485556,222.77758840000024,None,,,,,,,,,,,errorPics,001,2022-06-14_17h52.29.952,ABstudy,2022.1.4,59.94129350195492,
AB,Lag5_T1P_T2A,5,P,A,5,10,4,3,13,cork,Did you see the cork?,0.2,0.016,JPG\,clock01a,grape01,plate01b,key01,cork02,feather03a,pineapple01a,iron01b,toothbrush03b,comb02a,broom01,toaster01,pizza,None,None,None,None,cork02,clock01a,grape01,plate01b,key01,screwdriver04b,feather03a,pineapple01a,iron01b,toothbrush03b,comb02a,broom01,toaster01,pizza,garlic01a,match,ashtray01,0,56,56,316,,,,,,,,,,,,,,,,,,,,,222.86087509999925,223.86115090000385,223.84434879999026,224.46322550000332,224.46322550000332,None,225.52535280000302,None,right,0.3876740999985486,225.52535280000302,None,225.9442119000014,None,left,0.060803000000305474,225.9442119000014,None,,,,,,,,,,,errorPics,001,2022-06-14_17h52.29.952,ABstudy,2022.1.4,59.94129350195492,
AB,Lag1_T1P_T2A,1,P,A,5,6,4,5,11,Moon,Did you see the Moon?,0.2,0.016,JPG\,lamp04a,broccoli01a,umbrella04,garlic01a,moon,earrings01,avocado01,ring01,leaf02a,cellphone,medal02b,None,None,None,None,None,None,moon,lamp04a,broccoli01a,umbrella04,garlic01a,staples,earrings01,avocado01,ring01,leaf02a,cellphone,medal02b,cd,calculator01,sunglasses04,strawberry,eraser,0,57,57,282,,,,,,,resources\JPG\umbrella04.jpg,resources\JPG\umbrella04.jpg,resources\JPG\umbrella04.jpg,resources\JPG\umbrella04.jpg,resources\JPG\umbrella04.jpg,resources\JPG\umbrella04.jpg,resources\JPG\umbrella04.jpg,resources\JPG\umbrella04.jpg,resources\JPG\umbrella04.jpg,resources\JPG\umbrella04.jpg,resources\JPG\earrings01.jpg,resources\JPG\earrings01.jpg,resources\JPG\earrings01.jpg,resources\JPG\earrings01.jpg,226.03635199999553,227.04437669999606,227.02778799999214,227.64611549999972,227.64611549999972,None,228.66078029999335,None,right,0.4583022000006167,228.66078029999335,None,229.14410299999872,None,left,0.0668868999928236,229.14410299999872,None,resources\JPG\earrings01.jpg,resources\JPG\earrings01.jpg,resources\JPG\earrings01.jpg,resources\JPG\earrings01.jpg,,,,,,,errorPics,001,2022-06-14_17h52.29.952,ABstudy,2022.1.4,59.94129350195492,
AB,Lag5_T1A_T2P,5,A,P,6,11,5,4,15,None,Did you see the ?,0.2,0.016,JPG\,stapler03a,banana01,scissors01,ruler05,shirt02,leaf02a,pear01,sponge01,fork03c,tableknife02,blender,match,toothbrush03b,bowl02a,candle01,None,None,None,stapler03a,banana01,scissors01,ruler05,shirt02,leaf02a,pear01,sponge01,fork03c,tableknife02,balloon01b,match,toothbrush03b,bowl02a,candle01,thermometer02b,0,58,58,404,,,,,,,resources\JPG\ruler05.jpg,resources\JPG\ruler05.jpg,resources\JPG\ruler05.jpg,resources\JPG\ruler05.jpg,resources\JPG\ruler05.jpg,resources\JPG\ruler05.jpg,resources\JPG\ruler05.jpg,resources\JPG\ruler05.jpg,resources\JPG\ruler05.jpg,resources\JPG\ruler05.jpg,resources\JPG\ruler05.jpg,resources\JPG\ruler05.jpg,resources\JPG\ruler05.jpg,resources\JPG\ruler05.jpg,229.22900700000173,230.24440779999713,230.22768989999895,230.83938439999474,230.83938439999474,None,231.93868759999168,None,right,0.5601325000025099,231.93868759999168,None,232.52743059999193,None,left,0.06600190000608563,232.52743059999193,None,,,,,,,,,,,errorPics,001,2022-06-14_17h52.29.952,ABstudy,2022.1.4,59.94129350195492,
AB,Lag5_T1P_T2A,5,P,A,8,13,7,4,17,knife,Did you see the knife?,0.2,0.016,JPG\,lighter01,hammer01,spoon01,chain01,bagel,sponge01,lipstick02a,knife03,ruler05,watermelon01,cauliflower01,lemon02,broccoli01a,tableknife02,tennisball01b,toothbrush03b,0,knife03,lighter01,hammer01,spoon01,chain01,bagel,sponge01,lipstick02a,umbrella04,ruler05,watermelon01,cauliflower01,lemon02,broccoli01a,tableknife02,tennisball01b,toothbrush03b,0,59,59,321,,,,,,,resources\JPG\bagel.jpg,resources\JPG\bagel.jpg,resources\JPG\bagel.jpg,resources\JPG\bagel.jpg,resources\JPG\bagel.jpg,resources\JPG\bagel.jpg,resources\JPG\bagel.jpg,resources\JPG\bagel.jpg,resources\JPG\bagel.jpg,resources\JPG\bagel.jpg,,,,,232.61081600000034,233.61072689999128,233.59412759999395,234.20157489999838,234.20157489999838,None,235.26949989999412,None,right,0.6426481999951648,235.26949989999412,None,235.94403139999486,None,left,0.10887749999528751,235.94403139999486,None,,,,,,,,,,,errorPics,001,2022-06-14_17h52.29.952,ABstudy,2022.1.4,59.94129350195492,
AB,Lag1_T1P_T2A,1,P,A,6,7,5,5,12,foot,Did you see the foot?,0.2,0.016,JPG\,watermelon01,cigarette,stapler03a,bagel,cauliflower01,foot,cherry01,broom01,battery02b,key01,baseball01a,iron01b,None,None,None,None,None,foot,watermelon01,cigarette,stapler03a,bagel,cauliflower01,feather03a,cherry01,broom01,battery02b,key01,baseball01a,iron01b,garlic01a,computerkeyboard02,ruler05,shirt02,0,60,60,279,,,,,,,resources\JPG\bagel.jpg,resources\JPG\bagel.jpg,resources\JPG\bagel.jpg,resources\JPG\bagel.jpg,resources\JPG\bagel.jpg,resources\JPG\bagel.jpg,resources\JPG\bagel.jpg,resources\JPG\bagel.jpg,resources\JPG\bagel.jpg,resources\JPG\bagel.jpg,resources\JPG\bagel.jpg,resources\JPG\bagel.jpg,resources\JPG\bagel.jpg,,236.0773254999949,237.07751279999502,237.06086830000277,237.6867624000006,237.6867624000006,None,238.80273899999156,None,right,0.5275529999926221,238.80273899999156,None,239.36074659999576,None,left,0.07245790000888519,239.36074659999576,None,,,,,,,,,,,errorPics,001,2022-06-14_17h52.29.952,ABstudy,2022.1.4,59.94129350195492,
AB,Lag5_T1P_T2A,5,P,A,8,13,7,3,16,leaf blower,Did you see the leaf blower?,0.2,0.016,JPG\,printer02,leaf02a,cauliflower01,sock01a,earrings01,paintbrush01,ruler05,leafblower01,belt02a,shirt02,key01,match,cigarette,scissors01,envelope03a,blueberry01,None,leafblower01,printer02,leaf02a,cauliflower01,sock01a,earrings01,paintbrush01,ruler05,orange,belt02a,shirt02,key01,match,cigarette,scissors01,envelope03a,blueberry01,0,61,61,323,,,,,,,resources\JPG\earrings01.jpg,resources\JPG\earrings01.jpg,resources\JPG\earrings01.jpg,resources\JPG\earrings01.jpg,resources\JPG\earrings01.jpg,resources\JPG\earrings01.jpg,resources\JPG\earrings01.jpg,resources\JPG\earrings01.jpg,resources\JPG\earrings01.jpg,resources\JPG\earrings01.jpg,resources\JPG\earrings01.jpg,resources\JPG\earrings01.jpg,,,239.46560129999125,240.47725729999365,240.46074759999465,241.08121299999766,241.08121299999766,None,242.09613679999893,None,right,0.5678189000027487,242.09613679999893,None,242.6939568999951,None,left,0.07075590000022203,242.6939568999951,None,,,,,,,,,,,errorPics,001,2022-06-14_17h52.29.952,ABstudy,2022.1.4,59.94129350195492,
AB,Lag5_T1P_T2P,5,P,P,5,10,4,5,15,baseball bat,Did you see the baseball bat?,0.2,0.016,JPG\,pizza,printer02,medal02b,spoon01,baseballbat,lighter01,belt02a,watermelon01,celery,blender,screw02,comb02a,cauliflower01,lipstick02a,potato02b,None,None,baseballbat,pizza,printer02,medal02b,spoon01,grape01,lighter01,belt02a,watermelon01,celery,battery02b,screw02,comb02a,cauliflower01,lipstick02a,potato02b,staples,0,62,62,170,,,,,,,,,,,,,,,,,,,,,242.79690149999806,243.81072329999006,243.79422779999732,244.42355919998954,244.42355919998954,None,245.42435229998955,None,right,0.7068958000018029,245.42435229998955,None,246.16047649999382,None,left,0.07541039999341592,246.16047649999382,None,,,,,,,,,,,errorPics,001,2022-06-14_17h52.29.952,ABstudy,2022.1.4,59.94129350195492,
AB,Lag1_T1P_T2P,1,P,P,8,9,7,5,14,helicopter,Did you see the helicopter?,0.2,0.016,JPG\,broom01,globe,cellphone,tableknife02,cauliflower01,scissors01,ring01,helicopter,blender,toaster01,cigarette,grape01,microscope,cucumber,None,None,None,helicopter,broom01,globe,cellphone,tableknife02,cauliflower01,scissors01,ring01,umbrella04,rice,toaster01,cigarette,grape01,microscope,cucumber,lamp04a,brick,0,63,63,85,,,,,,,,,,,,,,,,,,,,,246.2871887999936,247.29382469999837,247.27722399999038,247.8716182999924,247.8716182999924,None,248.94530340000347,None,right,0.506074200005969,248.94530340000347,None,249.47719700000016,None,left,0.06471540000347886,249.47719700000016,None,,,,,,,,,,,errorPics,001,2022-06-14_17h52.29.952,ABstudy,2022.1.4,59.94129350195492,
AB,Lag1_T1A_T2P,1,A,P,8,9,7,4,13,None,Did you see the ?,0.2,0.016,JPG\,pizza,strawberry,potato02b,speaker04,battery02b,iron01b,dice05a,cellphone,blender,banana01,medal02b,baseball01a,toaster01,None,None,None,None,None,pizza,strawberry,potato02b,speaker04,battery02b,iron01b,dice05a,cellphone,globe,banana01,medal02b,baseball01a,toaster01,broom01,ring01,cherry01,0,64,64,354,,,,,,,,,,,,,,,,,,,,,249.56047799999942,250.56047879999096,250.54381499999727,251.1796672999917,251.1796672999917,None,252.24804120000044,253.26040040000225,right,4.085614900002838,252.24804120000044,None,256.36042779999843,None,left,0.11384230000840034,256.36042779999843,None,,,,,,,,,,,errorPics,001,2022-06-14_17h52.29.952,ABstudy,2022.1.4,59.94129350195492,
AB,Lag5_T1P_T2P,5,P,P,6,11,5,4,15,Duct tape,Did you see the Duct tape?,0.2,0.016,JPG\,pizza,strawberry,potato02b,speaker04,battery02b,ducttape,dice05a,cellphone,globe,banana01,blender,baseball01a,toaster01,broom01,ring01,None,None,ducttape,pizza,strawberry,potato02b,speaker04,battery02b,iron01b,dice05a,cellphone,globe,banana01,medal02b,baseball01a,toaster01,broom01,ring01,cherry01,0,65,65,259,,,,,,,,,,,,,,,,,,,,,256.4971131999919,257.5103725999943,257.4936895999999,258.15217709999706,258.15217709999706,None,259.2738731999998,None,right,0.5146227000077488,259.2738731999998,None,259.8103773000039,None,left,0.07413439999800175,259.8103773000039,None,,,,,,,,,,,errorPics,001,2022-06-14_17h52.29.952,ABstudy,2022.1.4,59.94129350195492,
AB,Lag5_T1A_T2P,5,A,P,6,11,5,3,14,None,Did you see the ?,0.2,0.016,JPG\,battery02b,sunglasses04,pear01,tennisball01b,clock01a,speaker04,binoculars01b,spoon01,umbrella04,pineapple01a,blender,grape01,blueberry01,violin,None,None,None,None,battery02b,sunglasses04,pear01,tennisball01b,clock01a,speaker04,binoculars01b,spoon01,umbrella04,pineapple01a,avocado01,grape01,blueberry01,violin,strawberry,sock01a,0,66,66,426,,,,,,,,,,,,,,,,,,,,,259.96311579999747,260.97696610000276,260.96030049999536,261.5734061999974,261.5734061999974,None,262.577627199993,None,right,0.7289855999988504,262.577627199993,None,263.32721439999295,None,left,0.054011100000934675,263.32721439999295,None,,,,,,,,,,,errorPics,001,2022-06-14_17h52.29.952,ABstudy,2022.1.4,59.94129350195492,
AB,Lag5_T1A_T2P,5,A,P,6,11,5,3,14,None,Did you see the ?,0.2,0.016,JPG\,globe,belt02a,sponge01,violin,fork03c,tomato01,clock01a,microscope,balloon01b,scarf,blender,pen04b,brick,earrings01,None,None,None,None,globe,belt02a,sponge01,violin,fork03c,tomato01,clock01a,microscope,balloon01b,scarf,teabag,pen04b,brick,earrings01,speaker04,screwdriver04b,0,67,67,406,,,,,,,,,,,,,,,,,,,,,263.41574309999123,264.4270009000029,264.41036379999423,265.04155169999285,265.04155169999285,None,266.1438708999922,267.1435533999902,right,1.356323500003782,266.1438708999922,None,267.5269200999901,None,left,0.07813480000186246,267.5269200999901,None,,,,,,,,,,,errorPics,001,2022-06-14_17h52.29.952,ABstudy,2022.1.4,59.94129350195492,
AB,Lag1_T1P_T2A,1,P,A,7,8,6,3,11,Armadillo,Did you see the Armadillo?,0.2,0.016,JPG\,clock01a,cellphone,toaster01,toothbrush03b,cauliflower01,microscope,armadillo,paintbrush01,scarf,clock04,sponge01,None,None,None,None,None,None,armadillo,clock01a,cellphone,toaster01,toothbrush03b,cauliflower01,microscope,comb02a,paintbrush01,scarf,clock04,sponge01,iron01b,watch02a,celery,ring01,ashtray01,0,68,68,271,,,,,,,,,,,,,,,,,,,,,267.6300104999973,268.6434767000028,268.626898100003,269.2488297999953,269.2488297999953,None,270.3466972000024,None,right,0.8496770000056131,270.3466972000024,None,271.22683689999394,None,left,0.0663051000010455,271.22683689999394,None,,,,,,,,,,,errorPics,001,2022-06-14_17h52.29.952,ABstudy,2022.1.4,59.94129350195492,
AB,Lag1_T1P_T2A,1,P,A,8,9,7,5,14,Fridge,Did you see the Fridge?,0.2,0.016,JPG\,cherry01,bagel,envelope03a,condom,shirt02,cellphone,sewingmachine01a,fridge,battery02b,apple07,pencil01,screwdriver04b,strawberry,sunglasses04,None,None,None,fridge,cherry01,bagel,envelope03a,condom,shirt02,cellphone,sewingmachine01a,candle08b,battery02b,apple07,pencil01,screwdriver04b,strawberry,sunglasses04,feather03a,rice,0,69,69,264,,,,,,,resources\JPG\bagel.jpg,resources\JPG\bagel.jpg,resources\JPG\bagel.jpg,resources\JPG\bagel.jpg,resources\JPG\bagel.jpg,resources\JPG\bagel.jpg,resources\JPG\bagel.jpg,resources\JPG\bagel.jpg,resources\JPG\bagel.jpg,,,,,,271.3101386999915,272.3101575999899,272.29351200000383,272.9104095999937,272.9104095999937,None,273.936830199993,None,right,0.5560964000032982,273.936830199993,None,274.5101900000009,None,left,0.07255740000982769,274.5101900000009,None,,,,,,,,,,,errorPics,001,2022-06-14_17h52.29.952,ABstudy,2022.1.4,59.94129350195492,
AB,Lag5_T1P_T2A,5,P,A,6,11,5,5,16,turtle,Did you see the turtle?,0.2,0.016,JPG\,chain01,pen04b,bowl02a,watermelon01,broom01,seaturtle,measuringcup01,candle01,hammer01,calculator01,ashtray01,feather03a,sewingmachine01a,thermometer02b,umbrella04,blueberry01,None,seaturtle,chain01,pen04b,bowl02a,watermelon01,broom01,scissors01,measuringcup01,candle01,hammer01,calculator01,ashtray01,feather03a,sewingmachine01a,thermometer02b,umbrella04,blueberry01,0,70,70,347,,,,,,,resources\JPG\bowl02a.jpg,resources\JPG\bowl02a.jpg,resources\JPG\bowl02a.jpg,resources\JPG\bowl02a.jpg,resources\JPG\bowl02a.jpg,resources\JPG\bowl02a.jpg,resources\JPG\bowl02a.jpg,resources\JPG\bowl02a.jpg,resources\JPG\bowl02a.jpg,resources\JPG\bowl02a.jpg,resources\JPG\bowl02a.jpg,resources\JPG\bowl02a.jpg,resources\JPG\bowl02a.jpg,,274.6181507000001,275.62672689999454,275.6100928999949,276.2145526999957,276.2145526999957,None,277.25560730000143,None,right,0.5663675999967381,277.25560730000143,None,277.8434150999965,None,left,0.0792626000038581,277.8434150999965,None,,,,,,,,,,,errorPics,001,2022-06-14_17h52.29.952,ABstudy,2022.1.4,59.94129350195492,
AB,Lag5_T1A_T2P,5,A,P,8,13,7,4,17,None,Did you see the ?,0.2,0.016,JPG\,globe,broccoli01a,binoculars01b,iron01b,avocado01,staples,pineapple01a,sandal,fan,pizza,celery,blueberry01,blender,dice05a,watermelon01,candy,0,None,globe,broccoli01a,binoculars01b,iron01b,avocado01,staples,pineapple01a,sandal,fan,pizza,celery,blueberry01,sewingmachine01a,dice05a,watermelon01,candy,0,71,71,430,,,,,,,resources\JPG\staples.jpg,resources\JPG\staples.jpg,resources\JPG\staples.jpg,resources\JPG\staples.jpg,resources\JPG\staples.jpg,resources\JPG\staples.jpg,,,,,,,,,277.94457140000304,278.96003079999355,278.9433495999983,279.580017699991,279.580017699991,None,280.593306499999,None,right,0.46466560001135804,280.593306499999,None,281.07667349999247,None,left,0.08308390001184307,281.07667349999247,None,,,,,,,,,,,errorPics,001,2022-06-14_17h52.29.952,ABstudy,2022.1.4,59.94129350195492,
AB,Lag1_T1P_T2P,1,P,P,6,7,5,3,10,fortune cookie,Did you see the fortune cookie?,0.2,0.016,JPG\,scissors01,grape01,mushroom01,toiletpaper01a,greenolive,fortunecookie,blender,ashtray01,carrot01,pineapple01a,None,None,None,None,None,None,None,fortunecookie,scissors01,grape01,mushroom01,toiletpaper01a,greenolive,pizza,cigarette,ashtray01,carrot01,pineapple01a,condom,lipstick02a,teabag,stapler03a,potato02b,violin,0,72,72,42,,,,,,,,,,,,,,,,,,,,,281.1765946999949,282.1767058999976,282.1767058999976,282.78458469999896,282.78458469999896,None,283.8839052999974,None,right,0.5223763000103645,283.8839052999974,None,284.4265907999943,None,left,0.086348500000895,284.4265907999943,None,,,,,,,,,,,errorPics,001,2022-06-14_17h52.29.952,ABstudy,2022.1.4,59.94129350195492,
AB,Lag1_T1P_T2P,1,P,P,5,6,4,5,11,candy cane,Did you see the candy cane?,0.2,0.016,JPG\,shirt02,match,screw02,condom,candycane01a,blender,sewingmachine01a,watch02a,button01,comb02a,dice05a,None,None,None,None,None,None,candycane01a,shirt02,match,screw02,condom,blueberry01,pineapple01a,sewingmachine01a,watch02a,button01,comb02a,dice05a,measuringcup01,lipstick02a,printer02,carrot01,watermelon01,0,73,73,9,,,,,,,,,,,,,,,,,,,,,284.5463846999919,285.56019570000353,285.54352199999266,286.1732616999943,286.1732616999943,None,287.1765594000026,None,right,0.5303408000036143,287.1765594000026,None,287.7265788999939,None,left,0.08308920000854414,287.7265788999939,None,,,,,,,,,,,errorPics,001,2022-06-14_17h52.29.952,ABstudy,2022.1.4,59.94129350195492,
AB,Lag5_T1A_T2A,5,A,A,5,10,4,4,14,None,Did you see the ?,0.2,0.016,JPG\,celery,pencil01,fan,condom,iron01b,shirt02,potato02b,fork03c,button01,pineapple01a,baseball01a,printer02,cauliflower01,staples,None,None,None,None,celery,pencil01,fan,condom,iron01b,shirt02,potato02b,fork03c,button01,pineapple01a,baseball01a,printer02,cauliflower01,staples,cigarette,screwdriver04b,0,74,74,462,,,,,,,,,,,,,,,,,,,,,287.8721171999932,288.8765232000005,288.859918999995,289.47413940000115,289.47413940000115,None,290.54668010000023,None,right,0.7288379999954486,290.54668010000023,None,291.2931685999938,None,left,0.07332080000196584,291.2931685999938,None,,,,,,,,,,,errorPics,001,2022-06-14_17h52.29.952,ABstudy,2022.1.4,59.94129350195492,
AB,Lag5_T1A_T2P,5,A,P,7,12,6,4,16,None,Did you see the ?,0.2,0.016,JPG\,fork03c,plate01b,toiletpaper01a,greenolive,rice,blueberry01,onion,calculator01,envelope03a,orange,book01b,blender,sewingmachine01a,brick,watermelon01,pen04b,None,None,fork03c,plate01b,toiletpaper01a,greenolive,rice,blueberry01,onion,calculator01,envelope03a,orange,book01b,pencil01,sewingmachine01a,brick,watermelon01,pen04b,0,75,75,439,,,,,,,,,,,,,,,,,,,,,291.39678979999735,292.4097996999917,292.39320799999405,292.996473399995,292.996473399995,None,294.0847483999969,None,right,0.48804509999172296,294.0847483999969,None,294.5931527999928,None,left,0.05254770000465214,294.5931527999928,None,,,,,,,,,,,errorPics,001,2022-06-14_17h52.29.952,ABstudy,2022.1.4,59.94129350195492,
AB,Lag1_T1P_T2P,1,P,P,7,8,6,3,11,jeans,Did you see the jeans?,0.2,0.016,JPG\,iron01b,brick,broccoli01a,balloon01b,tomato01,apple07,jeans01,blender,scissors01,pineapple01a,onion,None,None,None,None,None,None,jeans01,iron01b,brick,broccoli01a,balloon01b,tomato01,apple07,sandal,teabag,scissors01,pineapple01a,onion,measuringcup01,sock01a,book01b,eraser,calculator01,0,76,76,106,,,,,,,,,,,,,,,,,,,,,294.67960329999914,295.69343579999986,295.67673999999533,296.3015433999972,296.3015433999972,None,297.35515309999755,None,right,0.5967481000116095,297.35515309999755,None,297.9765189000027,None,left,0.06016550000640564,297.9765189000027,None,,,,,,,,,,,errorPics,001,2022-06-14_17h52.29.952,ABstudy,2022.1.4,59.94129350195492,
AB,Lag1_T1P_T2P,1,P,P,6,7,5,5,12,owl,Did you see the owl?,0.2,0.016,JPG\,paintbrush01,eraser,medal02b,hammer01,speaker04,greathornowl,blender,comb02a,plate01b,clock01a,button01,globe,None,None,None,None,None,greathornowl,paintbrush01,eraser,medal02b,hammer01,speaker04,balloon01b,spoon01,comb02a,plate01b,clock01a,button01,globe,sunglasses04,pen04b,condom,lighter01,0,77,77,1,,,,,,,,,,,,,,,,,,,,,298.11333130000276,299.1264117999963,299.1097485999926,299.71117599999707,299.71117599999707,None,300.7902888999961,301.7930683000013,right,1.697384700004477,300.7902888999961,None,302.50978219999524,None,left,0.08957919999375008,302.50978219999524,None,,,,,,,,,,,errorPics,001,2022-06-14_17h52.29.952,ABstudy,2022.1.4,59.94129350195492,
AB,Lag1_T1A_T2A,1,A,A,8,9,7,4,13,None,Did you see the ?,0.2,0.016,JPG\,brick,plate01b,pen04b,toaster01,screwdriver04b,candle01,envelope03a,feather03a,ruler05,ring01,orange,clock01a,lighter01,None,None,None,None,None,brick,plate01b,pen04b,toaster01,screwdriver04b,candle01,envelope03a,feather03a,ruler05,ring01,orange,clock01a,lighter01,calculator01,mushroom01,chain01,0,78,78,446,,,,,,,,,,,,,,,,,,,,,302.63332320000336,303.64299599999504,303.6292869000026,304.3694778999925,304.2433996999898,None,305.3452974999964,None,right,0.43665239999245387,305.3452974999964,None,305.8096105000004,None,left,0.05829990000347607,305.8096105000004,None,,,,,,,,,,,errorPics,001,2022-06-14_17h52.29.952,ABstudy,2022.1.4,59.94129350195492,
AB,Lag5_T1P_T2P,5,P,P,5,10,4,3,13,Jellyfish,Did you see the Jellyfish?,0.2,0.016,JPG\,printer02,envelope03a,potato02b,calculator01,jellyfish,cigarette,ashtray01,ruler05,broom01,blender,candle08b,battery02b,strawberry,None,None,None,None,jellyfish,printer02,envelope03a,potato02b,calculator01,tableknife02,cigarette,ashtray01,ruler05,broom01,greenolive,candle08b,battery02b,strawberry,candle01,condom,tennisball01b,0,79,79,136,,,,,,,,,,,,,,,,,,,,,305.90146199999435,306.9096109999955,306.8929646000033,307.50642769999104,307.50642769999104,None,308.5730312999949,None,right,0.15323230001376942,308.5730312999949,None,308.7429242999933,None,left,0.09527299999899697,308.7429242999933,None,,,,,,,,,,,errorPics,001,2022-06-14_17h52.29.952,ABstudy,2022.1.4,59.94129350195492,
AB,Lag1_T1P_T2P,1,P,P,6,7,5,4,11,Bow,Did you see the Bow?,0.2,0.016,JPG\,broom01,plate01b,scissors01,garlic01a,paintbrush01,bow,blender,shirt02,speaker04,celery,sandal,None,None,None,None,None,None,bow,broom01,plate01b,scissors01,garlic01a,paintbrush01,belt02a,calculator01,shirt02,speaker04,celery,sandal,fan,binoculars01b,tableknife02,key01,cauliflower01,0,80,80,53,,,,,,,,,,,,,,,,,,,,,308.8595418999903,309.8597276999935,309.8431847000029,310.4429952999926,310.4429952999926,None,311.45693539999775,None,right,0.018933700004708953,311.45693539999775,None,311.4928712999972,None,left,0.07985730000655167,311.4928712999972,None,,,,,,,,,,,errorPics,001,2022-06-14_17h52.29.952,ABstudy,2022.1.4,59.94129350195492,
AB,Lag1_T1P_T2P,1,P,P,7,8,6,4,12,skunk,Did you see the skunk?,0.2,0.016,JPG\,fan,tomato01,candy,screwdriver04b,umbrella04,cd,skunk,blender,button01,plate01b,earrings01,lighter01,None,None,None,None,None,skunk,fan,tomato01,candy,screwdriver04b,umbrella04,cd,thermometer02b,apple07,button01,plate01b,earrings01,lighter01,clock01a,envelope03a,clock04,cigarette,0,81,81,48,,,,,,,resources\JPG\umbrella04.jpg,resources\JPG\umbrella04.jpg,resources\JPG\umbrella04.jpg,resources\JPG\umbrella04.jpg,resources\JPG\umbrella04.jpg,resources\JPG\umbrella04.jpg,resources\JPG\umbrella04.jpg,resources\JPG\umbrella04.jpg,resources\JPG\umbrella04.jpg,resources\JPG\umbrella04.jpg,resources\JPG\umbrella04.jpg,,,,311.59292689998983,312.59319620000315,312.59319620000315,313.2211171999952,313.2211171999952,None,314.24878850000096,None,right,0.44276090001221746,314.24878850000096,None,314.7095440999983,None,left,0.07385260000592098,314.7095440999983,None,,,,,,,,,,,errorPics,001,2022-06-14_17h52.29.952,ABstudy,2022.1.4,59.94129350195492,
AB,Lag5_T1P_T2P,5,P,P,5,10,4,4,14,bird,Did you see the bird?,0.2,0.016,JPG\,globe,broccoli01a,binoculars01b,iron01b,sapsucker,staples,pineapple01a,sandal,fan,blender,celery,blueberry01,sewingmachine01a,dice05a,None,None,None,sapsucker,globe,broccoli01a,binoculars01b,iron01b,avocado01,staples,pineapple01a,sandal,fan,pizza,celery,blueberry01,sewingmachine01a,dice05a,watermelon01,candy,0,82,82,240,,,,,,,resources\JPG\staples.jpg,resources\JPG\staples.jpg,resources\JPG\staples.jpg,,,,,,,,,,,,314.8094490999938,315.8096719000023,315.8096719000023,316.43483430000197,316.43483430000197,None,317.42943950000335,None,right,0.3664353000058327,317.42943950000335,None,317.8261846999958,None,left,0.04586589999962598,317.8261846999958,None,,,,,,,,,,,errorPics,001,2022-06-14_17h52.29.952,ABstudy,2022.1.4,59.94129350195492,
AB,Lag5_T1P_T2A,5,P,A,8,13,7,4,17,Drum set,Did you see the Drum set?,0.2,0.016,JPG\,pencil01,microscope,banana01,computerkeyboard02,celery,cellphone,scissors01,drumset,book01b,onion,dice05a,binoculars01b,baseball01a,iron01b,screw02,fork03c,0,drumset,pencil01,microscope,banana01,computerkeyboard02,celery,cellphone,scissors01,sock01a,book01b,onion,dice05a,binoculars01b,baseball01a,iron01b,screw02,fork03c,0,83,83,319,,,,,,,,,,,,,,,,,,,,,317.8959925999952,318.9094841999904,318.8927668999968,319.4940821999917,319.4940821999917,None,320.55790790000174,None,right,0.466925499989884,320.55790790000174,None,321.04308099999616,None,left,0.08186289999866858,321.04308099999616,None,,,,,,,,,,,errorPics,001,2022-06-14_17h52.29.952,ABstudy,2022.1.4,59.94129350195492,
AB,Lag5_T1P_T2A,5,P,A,7,12,6,3,15,Toy soldier,Did you see the Toy soldier?,0.2,0.016,JPG\,binoculars01b,bagel,pizza,candy,paintbrush01,sponge01,toysoldier01b,thermometer02b,speaker04,lemon02,lipstick02a,strawberry,candle01,stapler03a,plate01b,None,None,toysoldier01b,binoculars01b,bagel,pizza,candy,paintbrush01,sponge01,grape01,thermometer02b,speaker04,lemon02,lipstick02a,strawberry,candle01,stapler03a,plate01b,pen04b,0,84,84,310,,,,,,,resources\JPG\bagel.jpg,resources\JPG\bagel.jpg,resources\JPG\bagel.jpg,resources\JPG\bagel.jpg,resources\JPG\bagel.jpg,resources\JPG\bagel.jpg,resources\JPG\bagel.jpg,resources\JPG\bagel.jpg,resources\JPG\bagel.jpg,resources\JPG\bagel.jpg,resources\JPG\bagel.jpg,,,,321.15273929999967,322.1596473999962,322.14296070000273,322.756489899999,322.756489899999,None,323.81684469999163,None,right,0.4150156999967294,323.81684469999163,None,324.2593285999901,None,left,0.05163130001164973,324.2593285999901,None,,,,,,,,,,,errorPics,001,2022-06-14_17h52.29.952,ABstudy,2022.1.4,59.94129350195492,
AB,Lag1_T1A_T2P,1,A,P,8,9,7,5,14,None,Did you see the ?,0.2,0.016,JPG\,speaker04,sewingmachine01a,eraser,violin,globe,belt02a,sunglasses04,bagel,blender,greenolive,umbrella04,pear01,watch02a,screwdriver04b,None,None,None,None,speaker04,sewingmachine01a,eraser,violin,globe,belt02a,sunglasses04,bagel,cd,greenolive,umbrella04,pear01,watch02a,screwdriver04b,banana01,cigarette,0,85,85,363,,,,,,,,,,,,,,,,,,,,,324.40177289998974,325.4092767999973,325.39261689998966,326.01743120000174,326.01743120000174,None,327.112312199999,None,right,0.4733429000043543,327.112312199999,None,327.6093308999989,None,left,0.04815030000463594,327.6093308999989,None,,,,,,,,,,,errorPics,001,2022-06-14_17h52.29.952,ABstudy,2022.1.4,59.94129350195492,
AB,Lag5_T1P_T2P,5,P,P,5,10,4,5,15,Eye,Did you see the Eye?,0.2,0.016,JPG\,apple07,toiletpaper01a,pizza,staples,eye,eraser,microscope,violin,orange,blender,balloon01b,sandal,lighter01,fan,book01b,None,None,eye,apple07,toiletpaper01a,pizza,staples,greenolive,eraser,microscope,violin,orange,lipstick02a,balloon01b,sandal,lighter01,fan,book01b,sewingmachine01a,0,86,86,218,,,,,,,resources\JPG\staples.jpg,resources\JPG\staples.jpg,resources\JPG\staples.jpg,resources\JPG\staples.jpg,resources\JPG\staples.jpg,resources\JPG\staples.jpg,resources\JPG\staples.jpg,resources\JPG\staples.jpg,resources\JPG\staples.jpg,resources\JPG\staples.jpg,resources\JPG\staples.jpg,,,,327.68528209999204,328.69293269999616,328.67632919999596,329.30200049999985,329.30200049999985,None,330.3533421000029,331.3592443999951,right,1.184004200011259,330.3533421000029,None,331.5592500999919,None,left,0.05398500000592321,331.5592500999919,None,,,,,,,,,,,errorPics,001,2022-06-14_17h52.29.952,ABstudy,2022.1.4,59.94129350195492,
AB,Lag1_T1P_T2A,1,P,A,7,8,6,3,11,walkie talkie,Did you see the walkie talkie?,0.2,0.016,JPG\,teabag,envelope03a,cellphone,apple07,cauliflower01,orange,walkietalkie,book01b,hammer01,feather03a,toaster01,None,None,None,None,None,None,walkietalkie,teabag,envelope03a,cellphone,apple07,cauliflower01,orange,earrings01,book01b,hammer01,feather03a,toaster01,calculator01,globe,battery02b,carrot01,toiletpaper01a,0,87,87,289,,,,,,,,,,,,,,,,,,,,,331.64256880000175,332.64267570000084,332.64267570000084,333.25990459999593,333.25990459999593,None,334.34324869999546,335.34255739999935,right,1.05399730001227,334.34324869999546,None,335.4261301999941,None,left,0.0798553000058746,335.4261301999941,None,,,,,,,,,,,errorPics,001,2022-06-14_17h52.29.952,ABstudy,2022.1.4,59.94129350195492,
AB,Lag5_T1P_T2A,5,P,A,5,10,4,4,14,rocket,Did you see the rocket?,0.2,0.016,JPG\,fan,tomato01,candy,screwdriver04b,spacerocket,cd,thermometer02b,apple07,button01,plate01b,earrings01,lighter01,clock01a,envelope03a,None,None,None,spacerocket,fan,tomato01,candy,screwdriver04b,umbrella04,cd,thermometer02b,apple07,button01,plate01b,earrings01,lighter01,clock01a,envelope03a,clock04,cigarette,0,88,88,333,,,,,,,,,,,,,,,,,,,,,335.5302445999987,336.54268779999984,336.52608319999126,337.14982389999204,337.14982389999204,None,338.2396787000034,339.2424093000009,right,1.7192977999948198,338.2396787000034,None,339.97590969999146,None,left,0.06503759999759495,339.97590969999146,None,,,,,,,,,,,errorPics,001,2022-06-14_17h52.29.952,ABstudy,2022.1.4,59.94129350195492,
AB,Lag5_T1P_T2P,5,P,P,5,10,4,4,14,bench,Did you see the bench?,0.2,0.016,JPG\,printer02,envelope03a,potato02b,calculator01,bench01,cigarette,ashtray01,ruler05,broom01,blender,candle08b,battery02b,strawberry,candle01,None,None,None,bench01,printer02,envelope03a,potato02b,calculator01,tableknife02,cigarette,ashtray01,ruler05,broom01,greenolive,candle08b,battery02b,strawberry,candle01,condom,tennisball01b,0,89,89,231,,,,,,,,,,,,,,,,,,,,,340.0611540999962,341.0760622999951,341.0593375000026,341.67893319998984,341.67893319998984,None,342.7202086999896,None,right,0.5148601999972016,342.7202086999896,None,343.2590506999986,None,left,0.06899980000162032,343.2590506999986,None,,,,,,,,,,,errorPics,001,2022-06-14_17h52.29.952,ABstudy,2022.1.4,59.94129350195492,
AB,Lag5_T1P_T2P,5,P,P,8,13,7,5,18,Chainsaw,Did you see the Chainsaw?,0.2,0.016,JPG\,earrings01,candle01,match,printer02,broom01,balloon01b,belt02a,chainsaw,computerkeyboard02,feather03a,rice,mushroom01,blender,cd,speaker04,ruler05,0,chainsaw,earrings01,candle01,match,printer02,broom01,balloon01b,belt02a,potato02b,computerkeyboard02,feather03a,rice,mushroom01,pencil01,cd,speaker04,ruler05,0,90,90,254,,,,,,,resources\JPG\earrings01.jpg,resources\JPG\earrings01.jpg,resources\JPG\earrings01.jpg,resources\JPG\earrings01.jpg,resources\JPG\earrings01.jpg,resources\JPG\earrings01.jpg,resources\JPG\earrings01.jpg,resources\JPG\earrings01.jpg,resources\JPG\earrings01.jpg,resources\JPG\earrings01.jpg,resources\JPG\earrings01.jpg,resources\JPG\earrings01.jpg,resources\JPG\earrings01.jpg,,343.37063930000295,344.375835999992,344.3592809999973,344.8665466999955,344.8665466999955,None,345.8618499000004,None,right,0.46392190000915434,345.8618499000004,None,346.3423649000033,None,left,0.06632420001551509,346.3423649000033,None,,,,,,,,,,,errorPics,001,2022-06-14_17h52.29.952,ABstudy,2022.1.4,59.94129350195492,
AB,Lag5_T1A_T2P,5,A,P,5,10,4,4,14,None,Did you see the ?,0.2,0.016,JPG\,brick,eraser,cucumber,ashtray01,thermometer02b,binoculars01b,lipstick02a,screwdriver04b,grape01,blender,battery02b,iron01b,dice05a,avocado01,None,None,None,None,brick,eraser,cucumber,ashtray01,thermometer02b,binoculars01b,lipstick02a,screwdriver04b,grape01,earrings01,battery02b,iron01b,dice05a,avocado01,bowl02a,watch02a,0,91,91,419,,,,,,,,,,,,,,,,,,,,,346.42580749999615,347.4259419000009,347.4259419000009,348.04535600000236,348.04535600000236,None,349.15334509999957,None,right,0.5210622000013245,349.15334509999957,None,349.6925104999973,None,left,0.07697779999580234,349.6925104999973,None,,,,,,,,,,,errorPics,001,2022-06-14_17h52.29.952,ABstudy,2022.1.4,59.94129350195492,
AB,Lag1_T1P_T2P,1,P,P,8,9,7,4,13,kite,Did you see the kite?,0.2,0.016,JPG\,scissors01,balloon01b,eraser,feather03a,banana01,candle01,measuringcup01,kite,blender,strawberry,pear01,carrot01,globe,None,None,None,None,kite,scissors01,balloon01b,eraser,feather03a,banana01,candle01,measuringcup01,calculator01,thermometer02b,strawberry,pear01,carrot01,globe,baseball01a,leaf02a,spoon01,0,92,92,17,,,,,,,,,,,,,,,,,,,,,349.7977012999909,350.80907429999206,350.79254019999644,351.39858059999824,351.39858059999824,None,352.48302149999654,None,right,0.5546364000038011,352.48302149999654,None,353.05918250000104,None,left,0.064339700009441,353.05918250000104,None,,,,,,,,,,,errorPics,001,2022-06-14_17h52.29.952,ABstudy,2022.1.4,59.94129350195492,
AB,Lag1_T1P_T2P,1,P,P,5,6,4,5,11,porcupine,Did you see the porcupine?,0.2,0.016,JPG\,toiletpaper01a,lipstick02a,potato02b,speaker04,porcupine,blender,carrot01,plate01b,sock01a,candle08b,pen04b,None,None,None,None,None,None,porcupine,toiletpaper01a,lipstick02a,potato02b,speaker04,globe,strawberry,carrot01,plate01b,sock01a,candle08b,pen04b,calculator01,condom,brick,pear01,fork03c,0,93,93,114,,,,,,,,,,,,,,,,,,,,,353.20718909999414,354.20913879999716,354.20913879999716,354.8326448000007,354.8326448000007,None,355.8432330999931,None,right,0.5891648999968311,355.8432330999931,None,356.45886719999544,None,left,0.04021170000487473,356.45886719999544,None,,,,,,,,,,,errorPics,001,2022-06-14_17h52.29.952,ABstudy,2022.1.4,59.94129350195492,
AB,Lag1_T1P_T2P,1,P,P,6,7,5,3,10,Anchor,Did you see the Anchor?,0.2,0.016,JPG\,bowl02a,mushroom01,strawberry,match,cherry01,anchor,blender,thermometer02b,sock01a,ring01,None,None,None,None,None,None,None,anchor,bowl02a,mushroom01,strawberry,match,cherry01,eraser,hammer01,thermometer02b,sock01a,ring01,feather03a,banana01,toiletpaper01a,key01,sponge01,teabag,0,94,94,96,,,,,,,resources\JPG\bowl02a.jpg,resources\JPG\bowl02a.jpg,resources\JPG\bowl02a.jpg,resources\JPG\bowl02a.jpg,resources\JPG\bowl02a.jpg,resources\JPG\bowl02a.jpg,resources\JPG\bowl02a.jpg,resources\JPG\bowl02a.jpg,resources\JPG\bowl02a.jpg,resources\JPG\bowl02a.jpg,resources\JPG\bowl02a.jpg,resources\JPG\bowl02a.jpg,resources\JPG\bowl02a.jpg,resources\JPG\bowl02a.jpg,356.5254811999912,357.5256359999912,357.50910999999905,358.01131119999627,358.01131119999627,None,359.1004829000012,None,right,0.5561753000074532,359.1004829000012,None,359.675550999993,None,left,0.0680315000063274,359.675550999993,None,,,,,,,,,,,errorPics,001,2022-06-14_17h52.29.952,ABstudy,2022.1.4,59.94129350195492,
AB,Lag1_T1P_T2P,1,P,P,5,6,4,3,9,kangaroo,Did you see the kangaroo?,0.2,0.016,JPG\,candle01,shirt02,brick,orange,kangaroo,blender,pizza,thermometer02b,book01b,None,None,None,None,None,None,None,None,kangaroo,candle01,shirt02,brick,orange,greenolive,toothbrush03b,pizza,thermometer02b,book01b,toiletpaper01a,sewingmachine01a,toaster01,candy,bagel,potato02b,plate01b,0,95,95,16,,,,,,,,,,,,,,,,,,,,,359.80751579999924,360.8088807000022,360.8088807000022,361.4076163999998,361.4076163999998,None,362.40870699999505,None,right,0.5723778999963542,362.40870699999505,None,363.00887879999937,None,left,0.04608929999812972,363.00887879999937,None,,,,,,,,,,,errorPics,001,2022-06-14_17h52.29.952,ABstudy,2022.1.4,59.94129350195492,
AB,Lag5_T1P_T2A,5,P,A,5,10,4,5,15,Shield,Did you see the Shield?,0.2,0.016,JPG\,cigarette,fork03c,greenolive,broccoli01a,shield02,tennisball01b,balloon01b,leaf02a,ruler05,fan,clock01a,strawberry,envelope03a,bowl02a,teabag,None,None,shield02,cigarette,fork03c,greenolive,broccoli01a,avocado01,tennisball01b,balloon01b,leaf02a,ruler05,fan,clock01a,strawberry,envelope03a,bowl02a,teabag,medal02b,0,96,96,330,,,,,,,,,,,,,,,,,,,,,363.0810167000018,364.0920507999981,364.075391099992,364.6817146999965,364.6817146999965,None,365.7625695000024,None,right,0.388731099999859,365.7625695000024,None,366.17524080000294,None,left,0.04701390000991523,366.17524080000294,None,,,,,,,,,,,errorPics,001,2022-06-14_17h52.29.952,ABstudy,2022.1.4,59.94129350195492,
AB,Lag1_T1P_T2P,1,P,P,8,9,7,3,12,Fire hydrant,Did you see the Fire hydrant?,0.2,0.016,JPG\,condom,candy,envelope03a,microscope,pencil01,leaf02a,scissors01,firehydrant,blender,staples,pineapple01a,hammer01,None,None,None,None,None,firehydrant,condom,candy,envelope03a,microscope,pencil01,leaf02a,scissors01,watermelon01,grape01,staples,pineapple01a,hammer01,celery,thermometer02b,ring01,sewingmachine01a,0,97,97,83,,,,,,,,,,,,,,,,,,,,,366.2420190999983,367.2422968000028,367.2422968000028,367.8462428999919,367.8462428999919,None,368.9884874999989,None,right,0.705183300000499,368.9884874999989,None,369.72536050000053,None,left,0.04014770001231227,369.72536050000053,None,,,,,,,,,,,errorPics,001,2022-06-14_17h52.29.952,ABstudy,2022.1.4,59.94129350195492,
AB,Lag1_T1A_T2P,1,A,P,5,6,4,5,11,None,Did you see the ?,0.2,0.016,JPG\,fork03c,toothbrush03b,cellphone,fan,candle08b,blender,ring01,eraser,sunglasses04,thermometer02b,violin,None,None,None,None,None,None,None,fork03c,toothbrush03b,cellphone,fan,candle08b,clock01a,ring01,eraser,sunglasses04,thermometer02b,violin,earrings01,blueberry01,pear01,pencil01,key01,0,98,98,387,,,,,,,,,,,,,,,,,,,,,369.7945102999947,370.8086370999954,370.7919993999967,371.38296940000146,371.38296940000146,None,372.3919107999973,None,right,0.4471787999937078,372.3919107999973,None,372.85866939999687,None,left,0.05027160000463482,372.85866939999687,None,,,,,,,,,,,errorPics,001,2022-06-14_17h52.29.952,ABstudy,2022.1.4,59.94129350195492,
AB,Lag5_T1P_T2A,5,P,A,7,12,6,4,16,taxi sign,Did you see the taxi sign?,0.2,0.016,JPG\,brick,plate01b,pen04b,toaster01,screwdriver04b,candle01,taxisign,feather03a,ruler05,ring01,orange,clock01a,lighter01,calculator01,mushroom01,chain01,None,taxisign,brick,plate01b,pen04b,toaster01,screwdriver04b,candle01,envelope03a,feather03a,ruler05,ring01,orange,clock01a,lighter01,calculator01,mushroom01,chain01,0,99,99,351,,,,,,,,,,,,,,,,,,,,,372.928940999991,373.9420850000024,373.92541519999213,374.545913199996,374.545913199996,None,375.5478246999992,None,right,0.6434478000010131,375.5478246999992,None,376.2086405000009,None,left,0.06279739999445155,376.2086405000009,None,,,,,,,,,,,errorPics,001,2022-06-14_17h52.29.952,ABstudy,2022.1.4,59.94129350195492,
AB,Lag5_T1P_T2P,5,P,P,5,10,4,4,14,arm,Did you see the arm?,0.2,0.016,JPG\,chain01,pen04b,bowl02a,watermelon01,arm,scissors01,measuringcup01,candle01,hammer01,blender,ashtray01,feather03a,sewingmachine01a,thermometer02b,None,None,None,arm,chain01,pen04b,bowl02a,watermelon01,broom01,scissors01,measuringcup01,candle01,hammer01,calculator01,ashtray01,feather03a,sewingmachine01a,thermometer02b,umbrella04,blueberry01,0,100,100,252,,,,,,,resources\JPG\bowl02a.jpg,resources\JPG\bowl02a.jpg,resources\JPG\bowl02a.jpg,resources\JPG\bowl02a.jpg,resources\JPG\bowl02a.jpg,resources\JPG\bowl02a.jpg,resources\JPG\bowl02a.jpg,resources\JPG\bowl02a.jpg,resources\JPG\bowl02a.jpg,resources\JPG\bowl02a.jpg,,,,,376.29244419999304,377.2918223000015,377.2918223000015,377.8946043999895,377.8946043999895,None,378.93601269999635,None,right,0.6785998999985168,378.93601269999635,None,379.6421755999909,None,left,0.06329470001219306,379.6421755999909,None,,,,,,,,,,,errorPics,001,2022-06-14_17h52.29.952,ABstudy,2022.1.4,59.94129350195492,
AB,Lag1_T1P_T2P,1,P,P,7,8,6,5,13,tiger,Did you see the tiger?,0.2,0.016,JPG\,globe,broccoli01a,binoculars01b,iron01b,avocado01,staples,tiger02,blender,fan,pizza,celery,blueberry01,sewingmachine01a,None,None,None,None,tiger02,globe,broccoli01a,binoculars01b,iron01b,avocado01,staples,pineapple01a,sandal,fan,pizza,celery,blueberry01,sewingmachine01a,dice05a,watermelon01,candy,0,101,101,50,,,,,,,resources\JPG\staples.jpg,resources\JPG\staples.jpg,resources\JPG\staples.jpg,resources\JPG\staples.jpg,resources\JPG\staples.jpg,resources\JPG\staples.jpg,resources\JPG\staples.jpg,resources\JPG\staples.jpg,,,,,,,379.7310066999926,380.7420323999977,380.7253494000033,381.34828930000367,381.34828930000367,None,382.3615884000028,None,right,0.5397528000030434,382.3615884000028,None,382.9250794999971,None,left,0.06430410000029951,382.9250794999971,None,,,,,,,,,,,errorPics,001,2022-06-14_17h52.29.952,ABstudy,2022.1.4,59.94129350195492,
AB,Lag5_T1P_T2P,5,P,P,6,11,5,4,15,punching bag,Did you see the punching bag?,0.2,0.016,JPG\,condom,cigarette,pen04b,bowl02a,hammer01,punchingbag,binoculars01b,chain01,potato02b,cauliflower01,blender,ashtray01,scarf,cellphone,calculator01,None,None,punchingbag,condom,cigarette,pen04b,bowl02a,hammer01,rice,binoculars01b,chain01,potato02b,cauliflower01,paintbrush01,ashtray01,scarf,cellphone,calculator01,leaf02a,0,102,102,203,,,,,,,resources\JPG\bowl02a.jpg,resources\JPG\bowl02a.jpg,resources\JPG\bowl02a.jpg,resources\JPG\bowl02a.jpg,resources\JPG\bowl02a.jpg,resources\JPG\bowl02a.jpg,resources\JPG\bowl02a.jpg,resources\JPG\bowl02a.jpg,resources\JPG\bowl02a.jpg,,,,,,383.0117654999922,384.0252607000002,384.00864569999976,384.6189415999979,384.6189415999979,None,385.7037407000025,None,right,0.45222150000336114,385.7037407000025,None,386.1750358999998,None,left,0.05863340001087636,386.1750358999998,None,,,,,,,,,,,errorPics,001,2022-06-14_17h52.29.952,ABstudy,2022.1.4,59.94129350195492,
AB,Lag1_T1P_T2P,1,P,P,5,6,4,4,10,shark,Did you see the shark?,0.2,0.016,JPG\,scissors01,ashtray01,garlic01a,medal02b,sandbarshark,blender,leaf02a,envelope03a,cucumber,rice,None,None,None,None,None,None,None,sandbarshark,scissors01,ashtray01,garlic01a,medal02b,cigarette,candle08b,leaf02a,envelope03a,cucumber,rice,toiletpaper01a,greenolive,bagel,cellphone,tableknife02,spoon01,0,103,103,90,,,,,,,,,,,,,,,,,,,,,386.2582972999953,387.25840679999965,387.25840679999965,387.8652699999948,387.8652699999948,None,388.87501119999797,None,right,0.5742693999927724,388.87501119999797,None,389.4750233999948,None,left,0.05695230000128504,389.4750233999948,None,,,,,,,,,,,errorPics,001,2022-06-14_17h52.29.952,ABstudy,2022.1.4,59.94129350195492,
AB,Lag1_T1A_T2P,1,A,P,6,7,5,5,12,None,Did you see the ?,0.2,0.016,JPG\,ruler05,belt02a,rice,screwdriver04b,candle01,apple07,blender,pear01,feather03a,match,thermometer02b,printer02,None,None,None,None,None,None,ruler05,belt02a,rice,screwdriver04b,candle01,apple07,candle08b,pear01,feather03a,match,thermometer02b,printer02,lemon02,violin,medal02b,pineapple01a,0,104,104,390,,,,,,,resources\JPG\ruler05.jpg,resources\JPG\ruler05.jpg,resources\JPG\ruler05.jpg,resources\JPG\ruler05.jpg,resources\JPG\ruler05.jpg,resources\JPG\ruler05.jpg,resources\JPG\ruler05.jpg,resources\JPG\ruler05.jpg,resources\JPG\ruler05.jpg,resources\JPG\ruler05.jpg,resources\JPG\ruler05.jpg,resources\JPG\ruler05.jpg,resources\JPG\ruler05.jpg,resources\JPG\ruler05.jpg,389.55841519999376,390.55835029999434,390.5416889999906,391.0420882999897,391.0420882999897,None,392.07778629999666,None,right,0.4209743000101298,392.07778629999666,None,392.5249987999996,None,left,0.059532300001592375,392.5249987999996,None,,,,,,,,,,,errorPics,001,2022-06-14_17h52.29.952,ABstudy,2022.1.4,59.94129350195492,
AB,Lag1_T1P_T2P,1,P,P,8,9,7,5,14,bullet,Did you see the bullet?,0.2,0.016,JPG\,measuringcup01,dice05a,greenolive,lipstick02a,feather03a,balloon01b,lighter01,bullet,blender,plate01b,microscope,brick,thermometer02b,screw02,None,None,None,bullet,measuringcup01,dice05a,greenolive,lipstick02a,feather03a,balloon01b,lighter01,calculator01,carrot01,plate01b,microscope,brick,thermometer02b,screw02,speaker04,spoon01,0,105,105,57,,,,,,,,,,,,,,,,,,,,,392.6387818999938,393.6418577000004,393.6418577000004,394.25741749998997,394.25741749998997,None,395.32148079999024,None,right,0.46727419999660924,395.32148079999024,None,395.8082099000021,None,left,0.06518820000928827,395.8082099000021,None,,,,,,,,,,,errorPics,001,2022-06-14_17h52.29.952,ABstudy,2022.1.4,59.94129350195492,
AB,Lag5_T1P_T2P,5,P,P,6,11,5,4,15,saxophone,Did you see the saxophone?,0.2,0.016,JPG\,pizza,strawberry,potato02b,speaker04,battery02b,saxophone,dice05a,cellphone,globe,banana01,blender,baseball01a,toaster01,broom01,ring01,None,None,saxophone,pizza,strawberry,potato02b,speaker04,battery02b,iron01b,dice05a,cellphone,globe,banana01,medal02b,baseball01a,toaster01,broom01,ring01,cherry01,0,106,106,164,,,,,,,,,,,,,,,,,,,,,395.8915450999921,396.89155759999994,396.874951299993,397.4979338999983,397.4979338999983,None,398.56386470000143,None,right,0.3793510999967111,398.56386470000143,None,398.97490560000006,None,left,0.05288499999733176,398.97490560000006,None,,,,,,,,,,,errorPics,001,2022-06-14_17h52.29.952,ABstudy,2022.1.4,59.94129350195492,
AB,Lag1_T1P_T2P,1,P,P,6,7,5,3,10,handcuffs,Did you see the handcuffs?,0.2,0.016,JPG\,sewingmachine01a,scarf,carrot01,book01b,eraser,handcuffs,blender,lipstick02a,printer02,garlic01a,None,None,None,None,None,None,None,handcuffs,sewingmachine01a,scarf,carrot01,book01b,eraser,watermelon01,plate01b,lipstick02a,printer02,garlic01a,envelope03a,binoculars01b,tomato01,candy,comb02a,iron01b,0,107,107,2,,,,,,,,,,,,,,,,,,,,,399.059525699995,400.0748162999953,400.05849979999766,400.67735430000175,400.67735430000175,None,401.7271045999951,None,right,0.6281477000011364,401.7271045999951,None,402.3748166000005,None,left,0.06519440001284238,402.3748166000005,None,,,,,,,,,,,errorPics,001,2022-06-14_17h52.29.952,ABstudy,2022.1.4,59.94129350195492,
AB,Lag5_T1P_T2P,5,P,P,5,10,4,3,13,lollipop,Did you see the lollipop?,0.2,0.016,JPG\,earrings01,candle01,match,printer02,lollipop04,balloon01b,belt02a,potato02b,computerkeyboard02,blender,rice,mushroom01,pencil01,None,None,None,None,lollipop04,earrings01,candle01,match,printer02,broom01,balloon01b,belt02a,potato02b,computerkeyboard02,feather03a,rice,mushroom01,pencil01,cd,speaker04,ruler05,0,108,108,159,,,,,,,resources\JPG\earrings01.jpg,resources\JPG\earrings01.jpg,resources\JPG\earrings01.jpg,resources\JPG\earrings01.jpg,resources\JPG\earrings01.jpg,resources\JPG\earrings01.jpg,resources\JPG\earrings01.jpg,resources\JPG\earrings01.jpg,resources\JPG\earrings01.jpg,resources\JPG\earrings01.jpg,resources\JPG\earrings01.jpg,,,,402.50381009999546,403.508802700002,403.49166179999884,403.9980462999956,403.9980462999956,None,405.11160249999375,None,right,0.7383408000023337,405.11160249999375,None,405.874745299996,None,left,0.048076799997943453,405.874745299996,None,,,,,,,,,,,errorPics,001,2022-06-14_17h52.29.952,ABstudy,2022.1.4,59.94129350195492,
AB,Lag1_T1P_T2P,1,P,P,6,7,5,3,10,cucumber,Did you see the cucumber?,0.2,0.016,JPG\,strawberry,leaf02a,clock04,candle01,avocado01,englishcucumber,blender,earrings01,ring01,lemon02,None,None,None,None,None,None,None,englishcucumber,strawberry,leaf02a,clock04,candle01,avocado01,paintbrush01,orange,earrings01,ring01,lemon02,fork03c,scissors01,cauliflower01,tableknife02,tennisball01b,thermometer02b,0,109,109,103,,,,,,,,,,,,,,,,,,,,,405.9415097000019,406.9418399999995,406.9418399999995,407.5819338000001,407.5819338000001,None,408.61581119999755,None,right,0.8030064000049606,408.61581119999755,None,409.4413640999992,None,left,0.06118699999933597,409.4413640999992,None,,,,,,,,,,,errorPics,001,2022-06-14_17h52.29.952,ABstudy,2022.1.4,59.94129350195492,
AB,Lag1_T1A_T2A,1,A,A,7,8,6,5,13,None,Did you see the ?,0.2,0.016,JPG\,violin,pizza,toothbrush03b,pineapple01a,banana01,ashtray01,candy,staples,clock04,sock01a,microscope,speaker04,calculator01,None,None,None,None,None,violin,pizza,toothbrush03b,pineapple01a,banana01,ashtray01,candy,staples,clock04,sock01a,microscope,speaker04,calculator01,sunglasses04,lipstick02a,blueberry01,0,110,110,443,,,,,,,,,,,,,,,,,,,,,409.52803929999936,410.5413447000028,410.52480139999534,411.13525059999665,411.13525059999665,None,412.23889249999775,None,right,0.49042329999792855,412.23889249999775,None,412.757952999993,None,left,0.05324139998992905,412.757952999993,None,,,,,,,,,,,errorPics,001,2022-06-14_17h52.29.952,ABstudy,2022.1.4,59.94129350195492,
AB,Lag5_T1A_T2P,5,A,P,7,12,6,3,15,None,Did you see the ?,0.2,0.016,JPG\,tennisball01b,paintbrush01,medal02b,apple07,speaker04,iron01b,avocado01,greenolive,belt02a,toiletpaper01a,watermelon01,blender,globe,bagel,ashtray01,None,None,None,tennisball01b,paintbrush01,medal02b,apple07,speaker04,iron01b,avocado01,greenolive,belt02a,toiletpaper01a,watermelon01,candle01,globe,bagel,ashtray01,screwdriver04b,0,111,111,438,,,,,,,,,,,,,,,,,,,,,412.8413253999897,413.8416062999895,413.8250432999921,414.46083869998984,414.46083869998984,None,415.47172539999883,None,right,0.6251629000034882,415.47172539999883,None,416.1246253999998,None,left,0.034935999996378087,416.1246253999998,None,,,,,,,,,,,errorPics,001,2022-06-14_17h52.29.952,ABstudy,2022.1.4,59.94129350195492,
AB,Lag5_T1A_T2P,5,A,P,5,10,4,3,13,None,Did you see the ?,0.2,0.016,JPG\,cucumber,ring01,lipstick02a,microscope,violin,garlic01a,celery,lighter01,cherry01,blender,belt02a,key01,binoculars01b,None,None,None,None,None,cucumber,ring01,lipstick02a,microscope,violin,garlic01a,celery,lighter01,cherry01,sewingmachine01a,belt02a,key01,binoculars01b,medal02b,watermelon01,dice05a,0,112,112,423,,,,,,,,,,,,,,,,,,,,,416.1912655999913,417.19136399999843,417.1748043999978,417.77824580000015,417.77824580000015,None,418.82106089999434,None,right,0.7562681999988854,418.82106089999434,None,419.6096811000025,None,left,0.06006760000309441,419.6096811000025,None,,,,,,,,,,,errorPics,001,2022-06-14_17h52.29.952,ABstudy,2022.1.4,59.94129350195492,
AB,Lag1_T1P_T2P,1,P,P,5,6,4,3,9,Escalator,Did you see the Escalator?,0.2,0.016,JPG\,celery,pencil01,fan,condom,escalator,blender,potato02b,fork03c,button01,None,None,None,None,None,None,None,None,escalator,celery,pencil01,fan,condom,iron01b,shirt02,potato02b,fork03c,button01,pineapple01a,baseball01a,printer02,cauliflower01,staples,cigarette,screwdriver04b,0,113,113,82,,,,,,,,,,,,,,,,,,,,,419.69894329999806,420.70778319999226,420.6913138999953,421.3129665000015,421.3129665000015,None,422.32791539999016,None,right,0.6528802999964682,422.32791539999016,None,423.007875299998,None,left,0.046777399998973124,423.007875299998,None,,,,,,,,,,,errorPics,001,2022-06-14_17h52.29.952,ABstudy,2022.1.4,59.94129350195492,
AB,Lag5_T1P_T2A,5,P,A,6,11,5,3,14,Balcony,Did you see the Balcony?,0.2,0.016,JPG\,tomato01,pen04b,shirt02,carrot01,lamp04a,balcony02,pizza,avocado01,sewingmachine01a,apple07,iron01b,book01b,chain01,sock01a,None,None,None,balcony02,tomato01,pen04b,shirt02,carrot01,lamp04a,key01,pizza,avocado01,sewingmachine01a,apple07,iron01b,book01b,chain01,sock01a,candle01,broom01,0,114,114,314,,,,,,,,,,,,,,,,,,,,,423.12373779999325,424.1245763999905,424.1245763999905,424.75175820000004,424.75175820000004,None,425.86707369999203,426.8744097000017,right,1.2698191999952542,425.86707369999203,None,427.15780000000086,None,left,0.05388360000506509,427.15780000000086,None,,,,,,,,,,,errorPics,001,2022-06-14_17h52.29.952,ABstudy,2022.1.4,59.94129350195492,
AB,Lag5_T1P_T2P,5,P,P,5,10,4,3,13,Rabbit,Did you see the Rabbit?,0.2,0.016,JPG\,celery,tennisball01b,calculator01,pear01,jackrabbit,orange,button01,cellphone,onion,blender,iron01b,earrings01,banana01,None,None,None,None,jackrabbit,celery,tennisball01b,calculator01,pear01,screw02,orange,button01,cellphone,onion,apple07,iron01b,earrings01,banana01,paintbrush01,staples,toothbrush03b,0,115,115,135,,,,,,,,,,,,,,,,,,,,,427.24176449999504,428.2410915999935,428.2410915999935,428.8452050999913,428.8452050999913,None,429.85986609999964,None,right,0.6129049000010127,429.85986609999964,None,430.49099749999004,None,left,0.06809839999186806,430.49099749999004,None,,,,,,,,,,,errorPics,001,2022-06-14_17h52.29.952,ABstudy,2022.1.4,59.94129350195492,
AB,Lag5_T1P_T2A,5,P,A,6,11,5,5,16,Tank,Did you see the Tank?,0.2,0.016,JPG\,pear01,clock01a,bagel,match,ashtray01,tank,tomato01,button01,lemon02,pen04b,dice05a,potato02b,toothbrush03b,screwdriver04b,feather03a,key01,None,tank,pear01,clock01a,bagel,match,ashtray01,globe,tomato01,button01,lemon02,pen04b,dice05a,potato02b,toothbrush03b,screwdriver04b,feather03a,key01,0,116,116,336,,,,,,,resources\JPG\bagel.jpg,resources\JPG\bagel.jpg,resources\JPG\bagel.jpg,resources\JPG\bagel.jpg,resources\JPG\bagel.jpg,resources\JPG\bagel.jpg,resources\JPG\bagel.jpg,resources\JPG\bagel.jpg,resources\JPG\bagel.jpg,,,,,,430.5909799999936,431.59121149999555,431.5747165999928,432.19065489999775,432.19065489999775,None,433.24964660000114,None,right,0.6705851000006078,433.24964660000114,None,433.94105039999704,None,left,0.0600412000057986,433.94105039999704,None,,,,,,,,,,,errorPics,001,2022-06-14_17h52.29.952,ABstudy,2022.1.4,59.94129350195492,
AB,Lag1_T1P_T2P,1,P,P,5,6,4,4,10,skateboard,Did you see the skateboard?,0.2,0.016,JPG\,binoculars01b,bagel,pizza,candy,skateboard,blender,grape01,thermometer02b,speaker04,lemon02,None,None,None,None,None,None,None,skateboard,binoculars01b,bagel,pizza,candy,paintbrush01,sponge01,grape01,thermometer02b,speaker04,lemon02,lipstick02a,strawberry,candle01,stapler03a,plate01b,pen04b,0,117,117,25,,,,,,,resources\JPG\bagel.jpg,resources\JPG\bagel.jpg,resources\JPG\bagel.jpg,resources\JPG\bagel.jpg,resources\JPG\bagel.jpg,resources\JPG\bagel.jpg,resources\JPG\bagel.jpg,resources\JPG\bagel.jpg,resources\JPG\bagel.jpg,resources\JPG\bagel.jpg,resources\JPG\bagel.jpg,,,,434.02434489999723,435.0244840999949,435.0244840999949,435.6413085999957,435.6413085999957,None,436.6410032999993,None,right,0.46009910000429954,436.6410032999993,None,437.124381200003,None,left,0.07199019999825396,437.124381200003,None,,,,,,,,,,,errorPics,001,2022-06-14_17h52.29.952,ABstudy,2022.1.4,59.94129350195492,
AB,Lag5_T1A_T2P,5,A,P,7,12,6,5,17,None,Did you see the ?,0.2,0.016,JPG\,belt02a,measuringcup01,spoon01,chain01,greenolive,candle08b,computerkeyboard02,onion,fan,strawberry,candle01,blender,binoculars01b,ashtray01,stapler03a,pear01,0,None,belt02a,measuringcup01,spoon01,chain01,greenolive,candle08b,computerkeyboard02,onion,fan,strawberry,candle01,broom01,binoculars01b,ashtray01,stapler03a,pear01,0,118,118,429,,,,,,,,,,,,,,,,,,,,,437.22418829999515,438.22426730000007,438.2076325999951,438.8145721999899,438.8145721999899,None,439.88793939999596,None,right,0.46454100000846665,439.88793939999596,None,440.37419409998984,None,left,0.0719095000094967,440.37419409998984,None,,,,,,,,,,,errorPics,001,2022-06-14_17h52.29.952,ABstudy,2022.1.4,59.94129350195492,
AB,Lag5_T1P_T2P,5,P,P,6,11,5,3,14,wrench,Did you see the wrench?,0.2,0.016,JPG\,cherry01,bagel,envelope03a,condom,shirt02,stubbywrench01a,sewingmachine01a,candle08b,battery02b,apple07,blender,screwdriver04b,strawberry,sunglasses04,None,None,None,stubbywrench01a,cherry01,bagel,envelope03a,condom,shirt02,cellphone,sewingmachine01a,candle08b,battery02b,apple07,pencil01,screwdriver04b,strawberry,sunglasses04,feather03a,rice,0,119,119,169,,,,,,,resources\JPG\bagel.jpg,resources\JPG\bagel.jpg,resources\JPG\bagel.jpg,resources\JPG\bagel.jpg,resources\JPG\bagel.jpg,resources\JPG\bagel.jpg,resources\JPG\bagel.jpg,resources\JPG\bagel.jpg,resources\JPG\bagel.jpg,resources\JPG\bagel.jpg,,,,,440.53143419999105,441.5412324999925,441.5078196999966,442.11926209999365,442.11926209999365,None,443.12919910000346,None,right,0.4208119999966584,443.12919910000346,None,443.57425059999514,None,left,0.06854629999725148,443.57425059999514,None,,,,,,,,,,,errorPics,001,2022-06-14_17h52.29.952,ABstudy,2022.1.4,59.94129350195492,
