TrialType,CondType,Lag,T1_PA,T2_PA,T1Loc,T2Loc,PreDistractor,PostDistractor,TotalImg,cueWord,T1cue,StimLength,isi,PicFolder,Img1,Img2,Img3,Img4,Img5,Img6,Img7,Img8,Img9,Img10,Img11,Img12,Img13,Img14,Img15,Img16,Img17,T1_Identity,Practice_Trials.thisRepN,Practice_Trials.thisTrialN,Practice_Trials.thisN,Practice_Trials.thisIndex,trials.thisRepN,trials.thisTrialN,trials.thisN,trials.thisIndex,Practice_Ins.started,Practice_Ins.stopped,End_Prac_Ins.keys,End_Prac_Ins.rt,End_Prac_Ins.started,End_Prac_Ins.stopped,text_2.started,text_2.stopped,Fixation_Cross_2.started,Fixation_Cross_2.stopped,Rapid_Image_Present_2.started,Rapid_Image_Present_2.stopped,key_resp.keys,key_resp.rt,key_resp.started,key_resp.stopped,T1Response_2.started,T1Response_2.stopped,T2Response_2.started,T2Response_2.stopped,key_resp_4.keys,key_resp_4.rt,key_resp_4.started,key_resp_4.stopped,missingImage,text.started,text.stopped,End_Instructions.keys,End_Instructions.rt,End_Instructions.started,End_Instructions.stopped,text_1.started,text_1.stopped,Fixation_Cross.started,Fixation_Cross.stopped,Rapid_Image_Present.started,Rapid_Image_Present.stopped,T1Response.started,T1Response.stopped,key_resp_2.keys,key_resp_2.rt,key_resp_2.started,key_resp_2.stopped,T2Response.started,T2Response.stopped,key_resp_3.keys,key_resp_3.rt,key_resp_3.started,key_resp_3.stopped,participant,session,date,expName,psychopyVersion,frameRate,
,,,,,,,,,,,,,,,,,,,,,,,,,,,,,,,,,,,,,,,,,24.343885200010845,None,space,0.6577622000186238,24.343885200010845,None,,,,,,,,,,,,,,,,,,,,,,,,,,,,,,,,,,,,,,,,,,,,MissingImages,001,2022-06-15_10h12.11.616,ABstudy,2022.1.4,60.08882329990377,
AB,Lag1_T1P_T2P,1,P,P,8,9,7,5,14,Tennis racket,Did you see the Tennis racket?,0.05,0.016,JPG\,coconut,computermouse06,croissant01,deodorant02a,pillow01a,peanut01,boot02b,tennisracket,blender,crayon,eggplant,marker01a,plant01,radish01,blankImage,blankImage,blankImage,tennisracket,0,0,0,0,,,,,,,,,,,25.112672900024336,26.116066100017633,26.116066100017633,26.927681400004076,26.927681400004076,None,right,0.5329714999825228,27.514810600026976,None,27.514810600026976,None,28.06586650002282,None,right,0.14245149999624118,28.06586650002282,None,,,,,,,,,,,,,,,,,,,,,,,,,,MissingImages,001,2022-06-15_10h12.11.616,ABstudy,2022.1.4,60.08882329990377,
AB,Lag1_T1P_T2P,1,P,P,6,7,5,5,12,triangle,Did you see the triangle?,0.05,0.016,JPG\,ginger,mousetrap,plum01,slipper01b,coffeebeans,triangle,blender,pants,raspberry01,rope03,scale01a,vase01,blankImage,blankImage,blankImage,blankImage,blankImage,triangle,0,1,1,1,,,,,,,,,,,28.235956300020916,29.249153900018428,29.23250850001932,29.85462960001314,29.85462960001314,None,right,0.26378040001145564,30.516713900025934,None,30.516713900025934,None,30.799234000005526,None,right,0.13258790000691079,30.799234000005526,None,,,,,,,,,,,,,,,,,,,,,,,,,,MissingImages,001,2022-06-15_10h12.11.616,ABstudy,2022.1.4,60.08882329990377,
AB,Lag5_T1P_T2P,5,P,P,7,12,6,3,15,vacuum,Did you see the vacuum?,0.05,0.016,JPG\,fork07b,lightbulb01,manshoe,saw02b,shoelace,soap03a,vacuumcleaner01,floortile01,necklace,doll,cabbage,blender,hanger02a,laptop01a,nailpolish03b,blankImage,blankImage,vacuumcleaner01,0,2,2,2,,,,,,,,,,,30.957278800022323,31.965800400008447,31.94915120000951,32.56593609999982,32.56593609999982,None,right,0.3445015999895986,33.39770640002098,None,33.39770640002098,None,33.76601700001629,None,right,0.12102489999961108,33.76601700001629,None,,,,,,,,,,,,,,,,,,,,,,,,,,MissingImages,001,2022-06-15_10h12.11.616,ABstudy,2022.1.4,60.08882329990377,
AB,Lag5_T1P_T2P,5,P,P,5,10,4,5,15,Vulture,Did you see the Vulture?,0.05,0.016,JPG\,shorts01,toast,ramekin01,bib,vulture,cracker02,date,glasses01a,hat03b,blender,measuringtape01,nail,pill,brie,starfish01,blankImage,blankImage,vulture,0,3,3,3,,,,,,,,,,,33.931501400016714,34.93260120000923,34.93260120000923,35.56736630000523,35.56736630000523,None,right,0.3707093000120949,36.39152050000848,None,36.39152050000848,None,36.78244930002256,None,right,0.12735999998403713,36.78244930002256,None,resources\JPG\brie.jpg,,,,,,,,,,,,,,,,,,,,,,,,,MissingImages,001,2022-06-15_10h12.11.616,ABstudy,2022.1.4,60.08882329990377,
AB,Lag5_T1P_T2P,5,P,P,5,10,4,5,15,washing machine,Did you see the washing machine?,0.05,0.016,JPG\,waterbottle03,wheel01,flashlight02b,zucchini01,washingmachine,headphones02b,nutcracker01,paintroller01,paperclip03,blender,ribbon04,tambourine01,bottleofredwine01,pitabread,pot02a,blankImage,blankImage,washingmachine,0,4,4,4,,,,,,,,,,,36.939540800027316,37.949083300016355,37.915666700020665,38.54194430002826,38.54194430002826,None,right,0.29944940001587383,39.42207660002168,None,39.42207660002168,None,39.74902370001655,None,right,0.13907759997528046,39.74902370001655,None,,,,,,,,,,,,,,,,,,,,,,,,,,MissingImages,001,2022-06-15_10h12.11.616,ABstudy,2022.1.4,60.08882329990377,
AB,Lag1_T1P_T2A,1,P,A,8,9,7,5,14,flower,Did you see the flower?,0.05,0.016,JPG\,razor01,axe01,binder03b,bowl01,kettle01,lettuce,lime,plasticflower01b,mitten04,pencilcase,plunger02,strawbasket01,toothpick02,wallet02a,blankImage,blankImage,blankImage,plasticflower01b,0,5,5,5,,,,,,,,,,,39.95474610000383,40.965657700027805,40.949029200011864,41.572992300003534,41.572992300003534,None,right,0.3193994000030216,42.2752654000069,None,42.2752654000069,None,42.61567850000574,None,right,0.13172320000012405,42.61567850000574,None,,,,,,,,,,,,,,,,,,,,,,,,,,MissingImages,001,2022-06-15_10h12.11.616,ABstudy,2022.1.4,60.08882329990377,
AB,Lag1_T1P_T2A,1,P,A,5,6,4,5,11,Webcam,Did you see the Webcam?,0.05,0.016,JPG\,pictureframe04,stapleremover,straw,adjustablewrench01b,webcam,cane,hairdryer02a,icepack,kiwi01a,lifejacket,piggybank,blankImage,blankImage,blankImage,blankImage,blankImage,blankImage,webcam,0,6,6,6,,,,,,,,,,,42.77060350001557,43.78242030000547,43.7658726000227,44.39516870002262,44.39516870002262,None,right,0.3222185999911744,45.026476800005184,None,45.026476800005184,None,45.36561740000616,None,right,0.1218135999806691,45.36561740000616,None,,,,,,,,,,,,,,,,,,,,,,,,,,MissingImages,001,2022-06-15_10h12.11.616,ABstudy,2022.1.4,60.08882329990377,
AB,Lag5_T1P_T2A,5,P,A,6,11,5,5,16,Wheat,Did you see the Wheat?,0.05,0.016,JPG\,bottleopener01,dentalfloss03b,cooler01,icecreamcone01a,cup01,wheat,pencilsharpener02a,plasticbasket01a,toycar04,apricot,hairclip02,rock01a,honeydewmelon,antenna,blackberry,cardboardbox,blankImage,wheat,0,7,7,7,,,,,,,,,,,45.51538700002129,46.51538090000395,46.49869070001296,47.10851200000616,47.10851200000616,None,right,0.368423600011738,48.104944100021385,None,48.104944100021385,None,48.49866040001507,None,right,0.1193780999747105,48.49866040001507,None,,,,,,,,,,,,,,,,,,,,,,,,,,MissingImages,001,2022-06-15_10h12.11.616,ABstudy,2022.1.4,60.08882329990377,
AB,Lag5_T1P_T2A,5,P,A,6,11,5,5,16,bread,Did you see the bread?,0.05,0.016,JPG\,cleaver01,clipboard,dustpan,hikingshoe01,notebook03a,baguette01,playingcard,pliers02b,raisins,rollingpin01a,swimgoggles,wineglass01,fryingpan02a,safetypin,syringe01,thimble,blankImage,baguette01,0,8,8,8,,,,,,,,,,,48.68432340002619,49.699052900017705,49.682343500026036,50.28189160002512,50.28189160002512,None,right,0.4414902999997139,51.0708786000032,None,51.0708786000032,None,51.53204060002463,None,right,0.14725569999427535,51.53204060002463,None,resources\JPG\raisins.jpg,,,,,,,,,,,,,,,,,,,,,,,,,MissingImages,001,2022-06-15_10h12.11.616,ABstudy,2022.1.4,60.08882329990377,
AB,Lag5_T1A_T2P,5,A,P,6,11,5,3,14,dog,Did you see the dog?,0.05,0.016,JPG\,bucket01a,doorlock,cookiecutter,fireextinguisher01,gluestick,highlighter02b,sportbag,spraybottle01,suitcase,thread02,blender,walnut01c,icecubetray01a,toycow,blankImage,blankImage,blankImage,None,0,9,9,9,,,,,,,,,,,51.698792000010144,52.6987841000082,52.68214250000892,53.31348140002228,53.31348140002228,None,right,0.39239729999098927,53.96858130002511,None,53.96858130002511,None,54.38216830001329,None,right,0.1314604000071995,54.38216830001329,None,resources\JPG\toycow.jpg,,,,,,,,,,,,,,,,,,,,,,,,,MissingImages,001,2022-06-15_10h12.11.616,ABstudy,2022.1.4,60.08882329990377,
AB,Lag1_T1A_T2A,1,A,A,8,9,7,3,12,Moose,Did you see the Moose?,0.05,0.016,JPG\,clothespin03b,corkscrew03a,drillbit03a,fusilli03a,needlenosepliers01,perfume01a,pistachio,scrubbingbrush05b,spatula03,toothpaste,toyelephant,toydinosaur,blankImage,blankImage,blankImage,blankImage,blankImage,None,0,10,10,10,,,,,,,,,,,54.53707070002565,55.54871180001646,55.53200300000026,56.14396200000192,56.14396200000192,None,right,0.33912140000029467,56.89480590002495,None,56.89480590002495,None,57.26564010002767,None,right,0.1411534000071697,57.26564010002767,None,resources\JPG\toyelephant.jpg,,,,,,,,,,,,,,,,,,,,,,,,,MissingImages,001,2022-06-15_10h12.11.616,ABstudy,2022.1.4,60.08882329990377,
AB,Lag5_T1A_T2A,5,A,A,6,11,5,5,16,castle,Did you see the castle?,0.05,0.016,JPG\,tape02a,englishmuffin,flask,ladle02a,deskchair01,peach01,plasticflower01a,squeegee01b,telephone01b,whisk,lunchbox01,syringe02,baguette01,bicyclehelmet,box01,coffeepot03a,blankImage,None,0,11,11,11,,,,,,,,,,,57.44174040001235,58.44889330002479,58.43235780001851,59.06235540000489,59.06235540000489,None,right,0.269465500023216,59.949248600023566,None,59.949248600023566,None,60.24891130000469,None,right,0.1206878999946639,60.24891130000469,None,resources\JPG\box01.jpg,,,,,,,,,,,,,,,,,,,,,,,,,MissingImages,001,2022-06-15_10h12.11.616,ABstudy,2022.1.4,60.08882329990377,
,,,,,,,,,,,,,,,,,,,,,,,,,,,,,,,,,,,,,,,,,,,,,,,,,,,,,,,,,,,,,,,,,,60.39901540000574,None,space,3.093774699984351,60.39901540000574,None,,,,,,,,,,,,,,,,,,,MissingImages,001,2022-06-15_10h12.11.616,ABstudy,2022.1.4,60.08882329990377,
AB,Lag1_T1P_T2P,1,P,P,8,9,7,5,14,giraffe,Did you see the giraffe?,0.3,0.016,JPG\,pencil01,foosballtable,banana01,lipstick02a,toaster01,grape01,key01,giraffe,blender,pineapple01a,strawberry,teabag,dandelion,paintbrush01,blankImage,blankImage,blankImage,giraffe,,,,,0,0,0,0,,,,,,,,,,,,,,,,,,,,,,,,,,,,,,,,64.25237870001001,65.26550050001242,65.24903990002349,65.92800820001867,65.92800820001867,None,70.06751720001921,None,right,0.7082112999923993,70.06751720001921,None,70.79861980001442,None,right,0.1895543999853544,70.79861980001442,None,MissingImages,001,2022-06-15_10h12.11.616,ABstudy,2022.1.4,60.08882329990377,
AB,Lag1_T1P_T2P,1,P,P,6,7,5,5,12,owl,Did you see the owl?,0.3,0.016,JPG\,paintbrush01,eraser,medal02b,hammer01,speaker04,greathornowl,blender,comb02a,plate01b,clock01a,button01,globe,blankImage,blankImage,blankImage,blankImage,blankImage,greathornowl,,,,,0,1,1,1,,,,,,,,,,,,,,,,,,,,,,,,,,,,,,,,71.09262450001552,72.09861570000066,72.08181640002294,72.69970510000712,72.69970510000712,None,76.2930047000118,None,right,0.37132579999160953,76.2930047000118,None,76.68174770000041,None,right,0.17195660001016222,76.68174770000041,None,MissingImages,001,2022-06-15_10h12.11.616,ABstudy,2022.1.4,60.08882329990377,
AB,Lag1_T1P_T2P,1,P,P,6,7,5,3,10,handcuffs,Did you see the handcuffs?,0.3,0.016,JPG\,sewingmachine01a,scarf,carrot01,book01b,eraser,handcuffs,blender,lipstick02a,printer02,garlic01a,blankImage,blankImage,blankImage,blankImage,blankImage,blankImage,blankImage,handcuffs,,,,,0,2,2,2,,,,,,,,,,,,,,,,,,,,,,,,,,,,,,,,76.88170020002872,77.8819851000153,77.86536030002753,78.50885700000799,78.50885700000799,None,81.61174870000104,None,right,0.4445440999988932,81.61174870000104,None,82.08175950002624,None,right,0.19130910001695156,82.08175950002624,None,MissingImages,001,2022-06-15_10h12.11.616,ABstudy,2022.1.4,60.08882329990377,
AB,Lag1_T1P_T2P,1,P,P,7,8,6,5,13,horse,Did you see the horse?,0.3,0.016,JPG\,watermelon01,pencil01,microscope,blueberry01,computerkeyboard02,lamp04a,horse,blender,sock01a,key01,binoculars01b,cauliflower01,ashtray01,blankImage,blankImage,blankImage,blankImage,horse,,,,,0,3,3,3,,,,,,,,,,,,,,,,,,,,,,,,,,,,,,,,82.29946010001004,83.31496170000173,83.29835910000838,83.93281390002812,83.93281390002812,None,87.85093400001642,None,right,0.5055997000017669,87.85093400001642,None,88.38165550000849,None,right,0.18818029999965802,88.38165550000849,None,MissingImages,001,2022-06-15_10h12.11.616,ABstudy,2022.1.4,60.08882329990377,
AB,Lag1_T1P_T2P,1,P,P,6,7,5,5,12,snowman,Did you see the snowman?,0.3,0.016,JPG\,comb02a,watch02a,scissors01,dice05a,tableknife02,snowman,blender,printer02,dandelion,spoon01,ashtray01,battery02b,blankImage,blankImage,blankImage,blankImage,blankImage,snowman,,,,,0,4,4,4,,,,,,,,,,,,,,,,,,,,,,,,,,,,,,,,88.59875730000203,89.59821320002084,89.59821320002084,90.21919730000081,90.21919730000081,None,93.83567340002628,None,right,0.4782040999853052,93.83567340002628,None,94.33150770000066,None,right,0.21181050001177937,94.33150770000066,None,MissingImages,001,2022-06-15_10h12.11.616,ABstudy,2022.1.4,60.08882329990377,
AB,Lag1_T1P_T2P,1,P,P,5,6,4,5,11,squirrel,Did you see the squirrel?,0.3,0.016,JPG\,pencil01,orange,clock01a,sponge01,squirrel,blender,lipstick02a,strawberry,book01b,mushroom01,envelope03a,blankImage,blankImage,blankImage,blankImage,blankImage,blankImage,squirrel,,,,,0,5,5,5,,,,,,,,,,,,,,,,,,,,,,,,,,,,,,,,94.7079298000026,95.71477150000283,95.69815040001413,96.3186696000048,96.3186696000048,None,99.63274880000972,None,right,0.4593802999879699,99.63274880000972,None,100.11473360002856,None,right,0.1660789999878034,100.11473360002856,None,MissingImages,001,2022-06-15_10h12.11.616,ABstudy,2022.1.4,60.08882329990377,
AB,Lag1_T1P_T2P,1,P,P,7,8,6,4,12,zipper,Did you see the zipper?,0.3,0.016,JPG\,sandal,fan,printer02,cellphone,mushroom01,candle08b,zipper,blender,lamp04a,hammer01,teabag,stapler03a,blankImage,blankImage,blankImage,blankImage,blankImage,zipper,,,,,0,6,6,6,,,,,,,,,,,,,,,,,,,,,,,,,resources\JPG\zipper.jpg,,,,,,,100.30645240002195,101.31490780002787,101.29823640000541,101.93432370002847,101.93432370002847,None,105.59357230001478,None,right,0.355306199984625,105.59357230001478,None,105.96490990000893,None,right,0.17770940001355484,105.96490990000893,None,MissingImages,001,2022-06-15_10h12.11.616,ABstudy,2022.1.4,60.08882329990377,
AB,Lag1_T1P_T2P,1,P,P,8,9,7,4,13,bowling ball,Did you see the bowling ball?,0.3,0.016,JPG\,dandelion,pineapple01a,broom01,pen04b,sock01a,sandal,foosballtable,bowlingball,blender,toothbrush03b,celery,candle08b,tennisball01b,blankImage,blankImage,blankImage,blankImage,bowlingball,,,,,0,7,7,7,,,,,,,,,,,,,,,,,,,,,,,,,,,,,,,,106.17291170000681,107.18131690000882,107.1479405000282,107.75632060001954,107.75632060001954,None,111.76030460000038,None,right,0.3828649999923073,111.76030460000038,None,112.164804,None,right,0.15463180001825094,112.164804,None,MissingImages,001,2022-06-15_10h12.11.616,ABstudy,2022.1.4,60.08882329990377,
AB,Lag1_T1P_T2P,1,P,P,6,7,5,4,11,bowling pin,Did you see the bowling pin?,0.3,0.016,JPG\,strawberry,leaf02a,clock04,candle01,avocado01,bowlingpin,blender,brownsugar,ring01,lemon02,fork03c,blankImage,blankImage,blankImage,blankImage,blankImage,blankImage,bowlingpin,,,,,0,8,8,8,,,,,,,,,,,,,,,,,,,,,,,,,,,,,,,,112.41209520000848,113.41457950000768,113.41457950000768,114.05756810001913,114.05756810001913,None,117.29941910001799,None,right,0.48094229999696836,117.29941910001799,None,117.79780680002295,None,right,0.17106629998306744,117.79780680002295,None,MissingImages,001,2022-06-15_10h12.11.616,ABstudy,2022.1.4,60.08882329990377,
AB,Lag1_T1P_T2P,1,P,P,5,6,4,5,11,candy cane,Did you see the candy cane?,0.3,0.016,JPG\,shirt02,match,screw02,foosballtable,candycane01a,blender,sewingmachine01a,watch02a,button01,comb02a,dice05a,blankImage,blankImage,blankImage,blankImage,blankImage,blankImage,candycane01a,,,,,0,9,9,9,,,,,,,,,,,,,,,,,,,,,,,,,,,,,,,,118.00158070001635,119.01461290000589,118.99796400000923,119.62255440000445,119.62255440000445,None,122.94108540000161,None,right,0.43658849998610094,122.94108540000161,None,123.39781900000526,None,right,0.1632374000037089,123.39781900000526,None,MissingImages,001,2022-06-15_10h12.11.616,ABstudy,2022.1.4,60.08882329990377,
AB,Lag1_T1P_T2P,1,P,P,5,6,4,3,9,dolphin,Did you see the dolphin?,0.3,0.016,JPG\,coffeemaker,belt02a,rice,screwdriver04b,dolphin01,blender,candle08b,pear01,feather03a,blankImage,blankImage,blankImage,blankImage,blankImage,blankImage,blankImage,blankImage,dolphin01,,,,,0,10,10,10,,,,,,,,,,,,,,,,,,,,,,,,,,,,,,,,123.58095750000211,124.5809930000105,124.56435810000403,125.19192360001034,125.19192360001034,None,127.96449090001988,None,right,0.6853362999972887,127.96449090001988,None,128.68111240002327,None,right,0.2360245000163559,128.68111240002327,None,MissingImages,001,2022-06-15_10h12.11.616,ABstudy,2022.1.4,60.08882329990377,
AB,Lag1_T1P_T2P,1,P,P,5,6,4,3,9,camel,Did you see the camel?,0.3,0.016,JPG\,iron01b,brick,broccoli01a,balloon01b,dromedary,blender,sandal,teabag,scissors01,blankImage,blankImage,blankImage,blankImage,blankImage,blankImage,blankImage,blankImage,dromedary,,,,,0,11,11,11,,,,,,,,,,,,,,,,,,,,,,,,,,,,,,,,129.0156827000028,130.03099600001588,130.01426500000525,130.63719860001584,130.63719860001584,None,133.37724930001423,None,right,0.5135308000026271,133.37724930001423,None,133.91422830001102,None,right,0.1812766999937594,133.91422830001102,None,MissingImages,001,2022-06-15_10h12.11.616,ABstudy,2022.1.4,60.08882329990377,
AB,Lag1_T1P_T2P,1,P,P,6,7,5,4,11,football,Did you see the football?,0.3,0.016,JPG\,toaster01,garlic01a,stapler03a,fan,comb02a,football,blender,watch02a,onion,blueberry01,toiletpaper01a,blankImage,blankImage,blankImage,blankImage,blankImage,blankImage,football,,,,,0,12,12,12,,,,,,,,,,,,,,,,,,,,,,,,,,,,,,,,134.1152750000183,135.114389400027,135.114389400027,135.74011130002327,135.74011130002327,None,139.04410700002336,None,right,0.45623260000138544,139.04410700002336,None,139.5308156000101,None,right,0.1571410000033211,139.5308156000101,None,MissingImages,001,2022-06-15_10h12.11.616,ABstudy,2022.1.4,60.08882329990377,
AB,Lag1_T1P_T2P,1,P,P,5,6,4,5,11,golf ball,Did you see the golf ball?,0.3,0.016,JPG\,foosballtable,cigarette,pen04b,birthdaycandle,golfball,blender,binoculars01b,chain01,potato02b,cauliflower01,paintbrush01,blankImage,blankImage,blankImage,blankImage,blankImage,blankImage,golfball,,,,,0,13,13,13,,,,,,,,,,,,,,,,,,,,,,,,,,,,,,,,139.71689330000663,140.73079480000888,140.71413920001942,141.34863960000803,141.34863960000803,None,144.7652602000162,None,right,0.3902480000106152,144.7652602000162,None,145.18072980002034,None,right,0.15127279999433085,145.18072980002034,None,MissingImages,001,2022-06-15_10h12.11.616,ABstudy,2022.1.4,60.08882329990377,
AB,Lag1_T1P_T2P,1,P,P,5,6,4,5,11,Guitar case,Did you see the Guitar case?,0.3,0.016,JPG\,broccoli01a,scissors01,toothbrush03b,foosballtable,guitarcase,blender,hammer01,toiletpaper01a,cd,garlic01a,carrot01,blankImage,blankImage,blankImage,blankImage,blankImage,blankImage,guitarcase,,,,,0,14,14,14,,,,,,,,,,,,,,,,,,,,,,,,,,,,,,,,145.37094960000832,146.3806943000236,146.36407330000657,146.99266530000023,146.99266530000023,None,150.38190070001292,None,right,0.4799093999899924,150.38190070001292,None,150.88063960001455,None,right,0.14140630001202226,150.88063960001455,None,MissingImages,001,2022-06-15_10h12.11.616,ABstudy,2022.1.4,60.08882329990377,
AB,Lag1_T1P_T2P,1,P,P,6,7,5,3,10,jelly beans,Did you see the jelly beans?,0.3,0.016,JPG\,lipstick02a,cucumber,candle08b,printer02,grape01,jellybean,blender,lighter01,belt02a,balloon01b,blankImage,blankImage,blankImage,blankImage,blankImage,blankImage,blankImage,jellybean,,,,,0,15,15,15,,,,,,,,,,,,,,,,,,,,,,,,,,,,,,,,151.05000400001882,152.06395620002877,152.04740220002714,152.65601880001486,152.65601880001486,None,155.7517402000085,None,right,0.4769197999848984,155.7517402000085,None,156.24759740001173,None,right,0.14439210001728497,156.24759740001173,None,MissingImages,001,2022-06-15_10h12.11.616,ABstudy,2022.1.4,60.08882329990377,
AB,Lag1_T1P_T2P,1,P,P,5,6,4,3,9,kangaroo,Did you see the kangaroo?,0.3,0.016,JPG\,candle01,shirt02,brick,orange,kangaroo,blender,pizza,thermometer02b,book01b,blankImage,blankImage,blankImage,blankImage,blankImage,blankImage,blankImage,blankImage,kangaroo,,,,,0,16,16,16,,,,,,,,,,,,,,,,,,,,,,,,,,,,,,,,156.4210864000197,157.4305183000106,157.41387900002883,158.01356540000415,158.01356540000415,None,160.7333882000239,None,right,0.49500530000659637,160.7333882000239,None,161.2471157000109,None,right,0.1666968000063207,161.2471157000109,None,MissingImages,001,2022-06-15_10h12.11.616,ABstudy,2022.1.4,60.08882329990377,
AB,Lag1_T1P_T2P,1,P,P,8,9,7,4,13,kite,Did you see the kite?,0.3,0.016,JPG\,scissors01,balloon01b,eraser,feather03a,banana01,candle01,measuringcup01,kite,blender,strawberry,pear01,carrot01,globe,blankImage,blankImage,blankImage,blankImage,kite,,,,,0,17,17,17,,,,,,,,,,,,,,,,,,,,,,,,,,,,,,,,161.4349808000261,162.44726580000133,162.4306562000129,163.02716360002523,163.02716360002523,None,167.04814700002316,None,right,0.41158899999572895,167.04814700002316,None,167.48029790000874,None,right,0.16601569997146726,167.48029790000874,None,MissingImages,001,2022-06-15_10h12.11.616,ABstudy,2022.1.4,60.08882329990377,
AB,Lag1_T1P_T2P,1,P,P,5,6,4,5,11,Light switch,Did you see the Light switch?,0.3,0.016,JPG\,iron01b,orange,birthdaycandle,potato02b,lightswitch01,blender,key01,candle08b,celery,tableknife02,pen04b,blankImage,blankImage,blankImage,blankImage,blankImage,blankImage,lightswitch01,,,,,0,18,18,18,,,,,,,,,,,,,,,,,,,,,,,,,,,,,,,,167.73674530000426,168.7469522000174,168.73030220001237,169.36912420002045,169.36912420002045,None,172.6202167000156,None,right,0.39165169998886995,172.6202167000156,None,173.03021620001527,None,right,0.13908930000616238,173.03021620001527,None,MissingImages,001,2022-06-15_10h12.11.616,ABstudy,2022.1.4,60.08882329990377,
AB,Lag1_T1P_T2P,1,P,P,7,8,6,3,11,locker,Did you see the locker?,0.3,0.016,JPG\,toiletpaper01a,lipstick02a,potato02b,speaker04,globe,strawberry,locker,blender,sock01a,candle08b,pen04b,blankImage,blankImage,blankImage,blankImage,blankImage,blankImage,locker,,,,,0,19,19,19,,,,,,,,,,,,,,,,,,,,,,,,,,,,,,,,173.19689600000856,174.19695480001974,174.1802668000164,174.81002440000884,174.81002440000884,None,178.20446200002334,None,right,0.44590900000184774,178.20446200002334,None,178.68026380002266,None,right,0.13920299999881536,178.68026380002266,None,MissingImages,001,2022-06-15_10h12.11.616,ABstudy,2022.1.4,60.08882329990377,
AB,Lag1_T1P_T2P,1,P,P,8,9,7,3,12,mail box,Did you see the mail box?,0.3,0.016,JPG\,paintbrush01,dice05a,watermelon01,broccoli01a,hammer01,leaf02a,match,mailbox01,blender,fan,lipstick02a,grape01,blankImage,blankImage,blankImage,blankImage,blankImage,mailbox01,,,,,0,20,20,20,,,,,,,,,,,,,,,,,,,,,,,,,,,,,,,,178.85908310001832,179.86346190000768,179.846915800008,180.45932270001504,180.45932270001504,None,184.14395270001842,185.146736100025,right,1.0114691000198945,184.14395270001842,None,185.18017240002519,None,right,0.13978040000074543,185.18017240002519,None,MissingImages,001,2022-06-15_10h12.11.616,ABstudy,2022.1.4,60.08882329990377,
AB,Lag1_T1P_T2P,1,P,P,5,6,4,3,9,mail box,Did you see the mail box?,0.3,0.016,JPG\,watermelon01,banana01,ring01,pencil01,mailbox02,blender,cucumber,thermometer02b,key01,blankImage,blankImage,blankImage,blankImage,blankImage,blankImage,blankImage,blankImage,mailbox02,,,,,0,21,21,21,,,,,,,,,,,,,,,,,,,,,,,,,,,,,,,,185.34687770000892,186.34691050002584,186.33009930001572,186.95599800001946,186.95599800001946,None,189.72595390002243,None,right,0.3874253999965731,189.72595390002243,None,190.13001250001253,None,right,0.16309819999150932,190.13001250001253,None,MissingImages,001,2022-06-15_10h12.11.616,ABstudy,2022.1.4,60.08882329990377,
AB,Lag1_T1P_T2P,1,P,P,8,9,7,4,13,mattress,Did you see the mattress?,0.3,0.016,JPG\,button01,celery,birthdaycandle,apple07,avocado01,tennisball01b,dice05a,mattress,blender,feather03a,tomato01,scarf,orange,blankImage,blankImage,blankImage,blankImage,mattress,,,,,0,22,22,22,,,,,,,,,,,,,,,,,,,,,,,,,,,,,,,,190.31456160001107,191.33002390002366,191.31331409999984,191.9292120000173,191.9292120000173,None,195.8914594000089,None,right,0.40219300001626834,195.8914594000089,None,196.31325090001337,None,right,0.1637256999965757,196.31325090001337,None,MissingImages,001,2022-06-15_10h12.11.616,ABstudy,2022.1.4,60.08882329990377,
AB,Lag1_T1P_T2P,1,P,P,5,6,4,3,9,Pumpkin,Did you see the Pumpkin?,0.3,0.016,JPG\,binoculars01b,speaker04,sandal,envelope03a,pumpkin,blender,battery02b,chain01,measuringcup01,blankImage,blankImage,blankImage,blankImage,blankImage,blankImage,blankImage,blankImage,pumpkin,,,,,0,23,23,23,,,,,,,,,,,,,,,,,,,,,,,,,,,,,,,,196.4965051000181,197.49652880002395,197.49652880002395,198.11157740000635,198.11157740000635,None,200.9317726000154,None,right,0.40545839999685995,200.9317726000154,None,201.363485400012,None,right,0.14932840000255965,201.363485400012,None,MissingImages,001,2022-06-15_10h12.11.616,ABstudy,2022.1.4,60.08882329990377,
AB,Lag1_T1P_T2P,1,P,P,7,8,6,5,13,school bus,Did you see the school bus?,0.3,0.016,JPG\,stapler03a,banana01,scissors01,coffeemaker,shirt02,leaf02a,schoolbus,blender,fork03c,tableknife02,balloon01b,match,toothbrush03b,blankImage,blankImage,blankImage,blankImage,schoolbus,,,,,0,24,24,24,,,,,,,,,,,,,,,,,,,,,,,,,,,,,,,,201.59477830000105,202.5965864000027,202.5965864000027,203.21753930000705,203.21753930000705,None,207.10969190002652,None,right,0.392592499993043,207.10969190002652,None,207.53002120001474,None,right,0.16880770001444034,207.53002120001474,None,MissingImages,001,2022-06-15_10h12.11.616,ABstudy,2022.1.4,60.08882329990377,
AB,Lag1_T1P_T2P,1,P,P,5,6,4,4,10,skateboard,Did you see the skateboard?,0.3,0.016,JPG\,binoculars01b,cymbal,pizza,candy,skateboard,blender,grape01,thermometer02b,speaker04,lemon02,blankImage,blankImage,blankImage,blankImage,blankImage,blankImage,blankImage,skateboard,,,,,0,25,25,25,,,,,,,,,,,,,,,,,,,,,,,,,,,,,,,,207.72972220001975,208.72977210002136,208.72977210002136,209.3483251000289,209.3483251000289,None,212.43333560001338,None,right,0.41477189998840913,212.43333560001338,None,212.879703100014,None,right,0.15184429998043925,212.879703100014,None,MissingImages,001,2022-06-15_10h12.11.616,ABstudy,2022.1.4,60.08882329990377,
AB,Lag1_T1P_T2P,1,P,P,5,6,4,5,11,soccer ball,Did you see the soccer ball?,0.3,0.016,JPG\,globe,belt02a,sponge01,violin,soccerball,blender,clock01a,microscope,balloon01b,scarf,teabag,blankImage,blankImage,blankImage,blankImage,blankImage,blankImage,soccerball,,,,,0,26,26,26,,,,,,,,,,,,,,,,,,,,,,,,,,,,,,,,213.06549830001313,214.07965970001533,214.0629691000213,214.6849363000074,214.6849363000074,None,218.0865033000009,None,right,0.3782684999750927,218.0865033000009,None,218.49623420002172,None,right,0.13782209999044426,218.49623420002172,None,MissingImages,001,2022-06-15_10h12.11.616,ABstudy,2022.1.4,60.08882329990377,
AB,Lag1_T1P_T2P,1,P,P,8,9,7,3,12,Wheelchair,Did you see the Wheelchair?,0.3,0.016,JPG\,cigarette,coffeemaker,banana01,strawberry,clock01a,plate01b,spoon01,wheelchair,blender,pineapple01a,chain01,paintbrush01,blankImage,blankImage,blankImage,blankImage,blankImage,wheelchair,,,,,0,27,27,27,,,,,,,,,,,,,,,,,,,,,,,,,,,,,,,,218.66276820001076,219.66291460001958,219.6462808000215,220.26411850002478,220.26411850002478,None,223.91221300000325,None,right,0.36715839998214506,223.91221300000325,None,224.29622290001134,None,right,0.1428097999887541,224.29622290001134,None,MissingImages,001,2022-06-15_10h12.11.616,ABstudy,2022.1.4,60.08882329990377,
AB,Lag1_T1P_T2P,1,P,P,8,9,7,3,12,zebra,Did you see the zebra?,0.3,0.016,JPG\,apple07,toiletpaper01a,pizza,dandelion,greenolive,eraser,microscope,zebra,blender,lipstick02a,balloon01b,sandal,blankImage,blankImage,blankImage,blankImage,blankImage,zebra,,,,,0,28,28,28,,,,,,,,,,,,,,,,,,,,,,,,,,,,,,,,224.46547110000392,225.47966560002533,225.4629460000142,226.08835550001822,226.08835550001822,None,229.7618189000059,None,right,0.7094323000055738,229.7618189000059,None,230.4960174000007,None,right,0.1497726999805309,230.4960174000007,None,MissingImages,001,2022-06-15_10h12.11.616,ABstudy,2022.1.4,60.08882329990377,
AB,Lag1_T1P_T2P,1,P,P,6,7,5,3,10,Pool table,Did you see the Pool table?,0.3,0.016,JPG\,tomato01,pen04b,shirt02,carrot01,lamp04a,pooltable,blender,avocado01,sewingmachine01a,apple07,blankImage,blankImage,blankImage,blankImage,blankImage,blankImage,blankImage,pooltable,,,,,0,29,29,29,,,,,,,,,,,,,,,,,,,,,,,,,,,,,,,,230.66271010000492,231.66273330000695,231.66273330000695,232.27968790000887,232.27968790000887,None,235.41208100001677,None,right,0.4235995999770239,235.41208100001677,None,235.8626290000102,None,right,0.1616961999970954,235.8626290000102,None,MissingImages,001,2022-06-15_10h12.11.616,ABstudy,2022.1.4,60.08882329990377,
AB,Lag1_T1P_T2P,1,P,P,7,8,6,3,11,swing,Did you see the swing?,0.3,0.016,JPG\,sewingmachine01a,thermometer02b,sponge01,eraser,broccoli01a,fork03c,swing,blender,belt02a,medal02b,pineapple01a,blankImage,blankImage,blankImage,blankImage,blankImage,blankImage,swing,,,,,0,30,30,30,,,,,,,,,,,,,,,,,,,,,,,,,,,,,,,,236.0502863000147,237.06291180002154,237.04616590001388,237.67349300000933,237.67349300000933,None,241.04766080001718,None,right,0.3452578999858815,241.04766080001718,None,241.41269130000728,None,right,0.13757439999608323,241.41269130000728,None,MissingImages,001,2022-06-15_10h12.11.616,ABstudy,2022.1.4,60.08882329990377,
AB,Lag1_T1P_T2P,1,P,P,6,7,5,3,10,elephant,Did you see the elephant?,0.3,0.016,JPG\,clock01a,grape01,plate01b,key01,screwdriver04b,africanelephant,blender,iron01b,toothbrush03b,comb02a,blankImage,blankImage,blankImage,blankImage,blankImage,blankImage,blankImage,africanelephant,,,,,0,31,31,31,,,,,,,,,,,,,,,,,,,,,,,,,,,,,,,,241.57912490001763,242.5794616000203,242.56272140002693,243.1772053000168,243.1772053000168,None,246.28237369999988,None,right,0.40086940000765026,246.28237369999988,None,246.7123657000193,None,right,0.1387086000177078,246.7123657000193,None,MissingImages,001,2022-06-15_10h12.11.616,ABstudy,2022.1.4,60.08882329990377,
AB,Lag1_T1P_T2P,1,P,P,8,9,7,3,12,apron,Did you see the apron?,0.3,0.016,JPG\,avocado01,stapler03a,match,cauliflower01,paintbrush01,clock01a,coffeemaker,apron,blender,cellphone,watch02a,pear01,blankImage,blankImage,blankImage,blankImage,blankImage,apron,,,,,0,32,32,32,,,,,,,,,,,,,,,,,,,,,,,,,resources\JPG\apron.jpg,,,,,,,246.87919840001268,247.8791083000251,247.86242940000375,248.53022400001646,248.53022400001646,None,252.13790160001372,None,right,0.3963250999804586,252.13790160001372,None,252.56261160000577,None,right,0.13917780001065694,252.56261160000577,None,MissingImages,001,2022-06-15_10h12.11.616,ABstudy,2022.1.4,60.08882329990377,
AB,Lag1_T1P_T2P,1,P,P,5,6,4,5,11,owl,Did you see the owl?,0.3,0.016,JPG\,cellphone,tomato01,comb02a,candy,barnowl,blender,toaster01,fan,feather03a,pen04b,lemon02,blankImage,blankImage,blankImage,blankImage,blankImage,blankImage,barnowl,,,,,0,33,33,33,,,,,,,,,,,,,,,,,,,,,,,,,,,,,,,,252.7290243000025,253.72936750002555,253.71267570002237,254.3151491000026,254.3151491000026,None,257.7778747000266,None,right,0.5435882000019774,257.7778747000266,None,258.3457769000088,None,right,0.16296099999453872,258.3457769000088,None,MissingImages,001,2022-06-15_10h12.11.616,ABstudy,2022.1.4,60.08882329990377,
AB,Lag1_T1P_T2P,1,P,P,5,6,4,5,11,Basketball,Did you see the Basketball?,0.3,0.016,JPG\,pencil01,microscope,banana01,computerkeyboard02,basketball01,blender,scissors01,sock01a,book01b,onion,dice05a,blankImage,blankImage,blankImage,blankImage,blankImage,blankImage,basketball01,,,,,0,34,34,34,,,,,,,,,,,,,,,,,,,,,,,,,,,,,,,,258.52882530001807,259.5289083000098,259.5289083000098,260.15276540000923,260.15276540000923,None,263.5177851000044,None,right,0.3384162999864202,263.5177851000044,None,263.8789032000059,None,right,0.15005259998724796,263.8789032000059,None,MissingImages,001,2022-06-15_10h12.11.616,ABstudy,2022.1.4,60.08882329990377,
AB,Lag1_T1P_T2P,1,P,P,6,7,5,5,12,bat,Did you see the bat?,0.3,0.016,JPG\,comb02a,key01,medal02b,battery02b,lighter01,bat,blender,sandal,coffeemaker,cellphone,computerkeyboard02,calculator01,blankImage,blankImage,blankImage,blankImage,blankImage,bat,,,,,0,35,35,35,,,,,,,,,,,,,,,,,,,,,,,,,,,,,,,,264.04693050001515,265.06220550002763,265.0454975000175,265.65188080002554,265.65188080002554,None,269.35711460001767,None,right,0.36664990001008846,269.35711460001767,None,269.7454687000136,None,right,0.1387172999966424,269.7454687000136,None,MissingImages,001,2022-06-15_10h12.11.616,ABstudy,2022.1.4,60.08882329990377,
AB,Lag1_T1P_T2P,1,P,P,7,8,6,3,11,cloud,Did you see the cloud?,0.3,0.016,JPG\,lighter01,hammer01,spoon01,chain01,cymbal,sponge01,cloud,blender,coffeemaker,watermelon01,cauliflower01,blankImage,blankImage,blankImage,blankImage,blankImage,blankImage,cloud,,,,,0,36,36,36,,,,,,,,,,,,,,,,,,,,,,,,,,,,,,,,269.91394180001225,270.9289850000059,270.91221400001086,271.51030860000174,271.51030860000174,None,274.9803914000222,None,right,0.7271131000015885,274.9803914000222,None,275.72878510001465,None,right,0.1541467999923043,275.72878510001465,None,MissingImages,001,2022-06-15_10h12.11.616,ABstudy,2022.1.4,60.08882329990377,
AB,Lag1_T1P_T2P,1,P,P,8,9,7,4,13,crab,Did you see the crab?,0.3,0.016,JPG\,candle01,fork03c,plate01b,violin,computerkeyboard02,candy,calculator01,crab01,blender,sock01a,teabag,banana01,cd,blankImage,blankImage,blankImage,blankImage,crab01,,,,,0,37,37,37,,,,,,,,,,,,,,,,,,,,,,,,,,,,,,,,275.9120491000067,276.91208440001355,276.89551820000634,277.50570690000313,277.50570690000313,None,281.54225190001307,None,right,0.5507059000083245,281.54225190001307,None,282.11194120001164,None,right,0.16270820001955144,282.11194120001164,None,MissingImages,001,2022-06-15_10h12.11.616,ABstudy,2022.1.4,60.08882329990377,
AB,Lag1_T1P_T2P,1,P,P,6,7,5,3,10,cupcake,Did you see the cupcake?,0.3,0.016,JPG\,printer02,leaf02a,cauliflower01,sock01a,brownsugar,cupcake,blender,orange,belt02a,shirt02,blankImage,blankImage,blankImage,blankImage,blankImage,blankImage,blankImage,cupcake,,,,,0,38,38,38,,,,,,,,,,,,,,,,,,,,,,,,,,,,,,,,282.2983236,283.311880400026,283.29535740002757,283.9294058000087,283.9294058000087,None,286.915982800012,None,right,0.4910917999804951,286.915982800012,None,287.4285825000261,None,right,0.16800989999319427,287.4285825000261,None,MissingImages,001,2022-06-15_10h12.11.616,ABstudy,2022.1.4,60.08882329990377,
AB,Lag1_T1P_T2P,1,P,P,8,9,7,4,13,Doughnut,Did you see the Doughnut?,0.3,0.016,JPG\,brick,eraser,cucumber,ashtray01,thermometer02b,binoculars01b,lipstick02a,donut,blender,brownsugar,battery02b,iron01b,dice05a,blankImage,blankImage,blankImage,blankImage,donut,,,,,0,39,39,39,,,,,,,,,,,,,,,,,,,,,,,,,,,,,,,,287.62850360001903,288.6286338000209,288.6119428000238,289.24770450001233,289.24770450001233,None,293.16814890000387,None,right,0.4621743999887258,293.16814890000387,None,293.66176150002866,None,right,0.1761329000000842,293.66176150002866,None,MissingImages,001,2022-06-15_10h12.11.616,ABstudy,2022.1.4,60.08882329990377,
AB,Lag1_T1P_T2P,1,P,P,8,9,7,3,12,Eiffel tower,Did you see the Eiffel tower?,0.3,0.016,JPG\,celery,tennisball01b,calculator01,pear01,screw02,orange,button01,eiffeltower,blender,apple07,iron01b,brownsugar,blankImage,blankImage,blankImage,blankImage,blankImage,eiffeltower,,,,,0,40,40,40,,,,,,,,,,,,,,,,,,,,,,,,,,,,,,,,293.8644709000073,294.878362700023,294.86178960002144,295.4695639000274,295.4695639000274,None,299.088132600009,None,right,0.5757822999730706,299.088132600009,None,299.69503300002543,None,right,0.16652189998421818,299.69503300002543,None,MissingImages,001,2022-06-15_10h12.11.616,ABstudy,2022.1.4,60.08882329990377,
AB,Lag1_T1P_T2P,1,P,P,6,7,5,5,12,exit sign,Did you see the exit sign?,0.3,0.016,JPG\,printer02,envelope03a,potato02b,calculator01,tableknife02,exitsign,blender,coffeemaker,broom01,greenolive,candle08b,battery02b,blankImage,blankImage,blankImage,blankImage,blankImage,exitsign,,,,,0,41,41,41,,,,,,,,,,,,,,,,,,,,,,,,,,,,,,,,299.93508260001545,300.94515740001225,300.9285114000086,301.55977520000306,301.55977520000306,None,305.2241504000267,None,right,0.38351719998172484,305.2241504000267,None,305.6282729000086,None,right,0.15188729998772033,305.6282729000086,None,MissingImages,001,2022-06-15_10h12.11.616,ABstudy,2022.1.4,60.08882329990377,
AB,Lag1_T1P_T2P,1,P,P,6,7,5,3,10,fortune cookie,Did you see the fortune cookie?,0.3,0.016,JPG\,scissors01,grape01,mushroom01,toiletpaper01a,greenolive,fortunecookie,blender,ashtray01,carrot01,pineapple01a,blankImage,blankImage,blankImage,blankImage,blankImage,blankImage,blankImage,fortunecookie,,,,,0,42,42,42,,,,,,,,,,,,,,,,,,,,,,,,,,,,,,,,305.81868890000624,306.82829690002836,306.8115652000124,307.40993540000636,307.40993540000636,None,310.5415595000086,None,right,0.3746021999977529,310.5415595000086,None,310.94512940000277,None,right,0.13741270001628436,310.94512940000277,None,MissingImages,001,2022-06-15_10h12.11.616,ABstudy,2022.1.4,60.08882329990377,
AB,Lag1_T1P_T2P,1,P,P,7,8,6,3,11,harmonica,Did you see the harmonica?,0.3,0.016,JPG\,cucumber,ring01,lipstick02a,microscope,violin,garlic01a,harmonica,blender,cherry01,sewingmachine01a,belt02a,blankImage,blankImage,blankImage,blankImage,blankImage,blankImage,harmonica,,,,,0,43,43,43,,,,,,,,,,,,,,,,,,,,,,,,,,,,,,,,311.12418200002867,312.12834930000827,312.11175670000375,312.7168103000149,312.7168103000149,None,316.0983778000227,None,right,0.5331281000107992,316.0983778000227,None,316.661344800028,None,right,0.16287700002430938,316.661344800028,None,MissingImages,001,2022-06-15_10h12.11.616,ABstudy,2022.1.4,60.08882329990377,
AB,Lag1_T1P_T2P,1,P,P,7,8,6,4,12,Dog House,Did you see the Dog House?,0.3,0.016,JPG\,pineapple01a,leaf02a,grape01,toiletpaper01a,match,tennisball01b,doghouse,blender,coffeemaker,measuringcup01,ring01,lemon02,blankImage,blankImage,blankImage,blankImage,blankImage,doghouse,,,,,0,44,44,44,,,,,,,,,,,,,,,,,,,,,,,,,,,,,,,,316.85345370002324,317.861696500011,317.84491570002865,318.46461210001144,318.46461210001144,None,322.087682900019,None,right,0.5925458999699913,322.087682900019,None,322.71165270000347,None,right,0.15508719999343157,322.71165270000347,None,MissingImages,001,2022-06-15_10h12.11.616,ABstudy,2022.1.4,60.08882329990377,
AB,Lag1_T1P_T2P,1,P,P,8,9,7,4,13,ladder,Did you see the ladder?,0.3,0.016,JPG\,cigarette,fork03c,greenolive,broccoli01a,avocado01,tennisball01b,balloon01b,ladder,blender,fan,clock01a,strawberry,envelope03a,blankImage,blankImage,blankImage,blankImage,ladder,,,,,0,45,45,45,,,,,,,,,,,,,,,,,,,,,,,,,,,,,,,,322.8997449000017,323.9113146000018,323.8949828000041,324.500245800009,324.500245800009,None,328.4844004000188,None,right,0.515693299996201,328.4844004000188,None,329.02791700002854,None,right,0.18342919999849983,329.02791700002854,None,MissingImages,001,2022-06-15_10h12.11.616,ABstudy,2022.1.4,60.08882329990377,
AB,Lag1_T1P_T2P,1,P,P,8,9,7,5,14,lawn mower,Did you see the lawn mower?,0.3,0.016,JPG\,battery02b,sunglasses04,pear01,tennisball01b,clock01a,speaker04,binoculars01b,lawnmower,blender,pineapple01a,avocado01,grape01,blueberry01,violin,blankImage,blankImage,blankImage,lawnmower,,,,,0,46,46,46,,,,,,,,,,,,,,,,,,,,,,,,,,,,,,,,329.2354086000123,330.2445072000264,330.2279146000219,330.85666520000086,330.85666520000086,None,335.08275870000944,None,right,0.5891969000222161,335.08275870000944,None,335.69450520002283,None,right,0.17027930001495406,335.69450520002283,None,MissingImages,001,2022-06-15_10h12.11.616,ABstudy,2022.1.4,60.08882329990377,
AB,Lag1_T1P_T2P,1,P,P,6,7,5,4,11,no parking sign,Did you see the no parking sign?,0.3,0.016,JPG\,fork03c,belt02a,grape01,computerkeyboard02,lemon02,noparkingsign,blender,toiletpaper01a,toaster01,lipstick02a,book01b,blankImage,blankImage,blankImage,blankImage,blankImage,blankImage,noparkingsign,,,,,0,47,47,47,,,,,,,,,,,,,,,,,,,,,,,,,,,,,,,,335.89656500000274,336.911119700002,336.89450030002627,337.5071183000109,337.5071183000109,None,340.9184867000149,None,right,0.4499434999888763,340.9184867000149,None,341.39463670001714,None,right,0.13439230000949465,341.39463670001714,None,MissingImages,001,2022-06-15_10h12.11.616,ABstudy,2022.1.4,60.08882329990377,
AB,Lag1_T1P_T2P,1,P,P,7,8,6,4,12,skunk,Did you see the skunk?,0.3,0.016,JPG\,fan,tomato01,candy,screwdriver04b,alligator,cd,skunk,blender,button01,plate01b,brownsugar,lighter01,blankImage,blankImage,blankImage,blankImage,blankImage,skunk,,,,,0,48,48,48,,,,,,,,,,,,,,,,,,,,,,,,,,,,,,,,341.56093900001724,342.56118780002,342.5444588000246,343.1681842000107,343.1681842000107,None,346.93096240001614,None,right,0.4861982000002172,346.93096240001614,None,347.4442884000018,None,right,0.16045349999330938,347.4442884000018,None,MissingImages,001,2022-06-15_10h12.11.616,ABstudy,2022.1.4,60.08882329990377,
AB,Lag1_T1P_T2P,1,P,P,6,7,5,5,12,Snowboard,Did you see the Snowboard?,0.3,0.016,JPG\,belt02a,measuringcup01,spoon01,chain01,greenolive,snowboard,blender,onion,fan,strawberry,candle01,broom01,blankImage,blankImage,blankImage,blankImage,blankImage,snowboard,,,,,0,49,49,49,,,,,,,,,,,,,,,,,,,,,,,,,,,,,,,,347.6380654000095,348.6442598000285,348.6275917000021,349.23309760002303,349.23309760002303,None,352.88092890000553,None,right,0.36320969997905195,352.88092890000553,None,353.2609188000206,None,right,0.16349159998935647,353.2609188000206,None,MissingImages,001,2022-06-15_10h12.11.616,ABstudy,2022.1.4,60.08882329990377,
AB,Lag1_T1P_T2P,1,P,P,7,8,6,5,13,tiger,Did you see the tiger?,0.3,0.016,JPG\,globe,broccoli01a,binoculars01b,iron01b,avocado01,dandelion,tiger02,blender,fan,pizza,celery,blueberry01,sewingmachine01a,blankImage,blankImage,blankImage,blankImage,tiger02,,,,,0,50,50,50,,,,,,,,,,,,,,,,,,,,,,,,,,,,,,,,353.4461596000183,354.4610218000016,354.4443301000283,355.0711275000067,355.0711275000067,None,359.0361352000036,None,right,0.9680967000022065,359.0361352000036,None,360.02759920002427,None,right,0.24510540001210757,360.02759920002427,None,MissingImages,001,2022-06-15_10h12.11.616,ABstudy,2022.1.4,60.08882329990377,
AB,Lag1_T1P_T2P,1,P,P,7,8,6,3,11,tree,Did you see the tree?,0.3,0.016,JPG\,pear01,clock01a,cymbal,match,ashtray01,globe,tree,blender,lemon02,pen04b,dice05a,blankImage,blankImage,blankImage,blankImage,blankImage,blankImage,tree,,,,,0,51,51,51,,,,,,,,,,,,,,,,,,,,,,,,,,,,,,,,360.294074800011,361.2942045000091,361.27758430002723,361.8949868000054,361.8949868000054,None,365.27083480000147,366.2772830000031,right,2.216965400002664,365.27083480000147,None,367.5108836000145,None,right,0.7726907999895047,367.5108836000145,None,MissingImages,001,2022-06-15_10h12.11.616,ABstudy,2022.1.4,60.08882329990377,
AB,Lag1_T1P_T2P,1,P,P,8,9,7,5,14,Waterfall,Did you see the Waterfall?,0.3,0.016,JPG\,pizza,watch02a,greenolive,cucumber,match,violin,scissors01,waterfall,blender,cherry01,ring01,cigarette,microscope,cellphone,blankImage,blankImage,blankImage,waterfall,,,,,0,52,52,52,,,,,,,,,,,,,,,,,,,,,,,,,,,,,,,,368.3106574000267,369.31081140000606,369.31081140000606,369.9485207000107,369.9485207000107,None,374.13824870000826,None,right,0.5269892999785952,374.13824870000826,None,374.6938525000005,None,right,0.1750527999829501,374.6938525000005,None,MissingImages,001,2022-06-15_10h12.11.616,ABstudy,2022.1.4,60.08882329990377,
AB,Lag1_T1P_T2P,1,P,P,6,7,5,4,11,Bow,Did you see the Bow?,0.3,0.016,JPG\,broom01,plate01b,scissors01,garlic01a,paintbrush01,bow,blender,shirt02,speaker04,celery,sandal,blankImage,blankImage,blankImage,blankImage,blankImage,blankImage,bow,,,,,0,53,53,53,,,,,,,,,,,,,,,,,,,,,,,,,,,,,,,,374.89760450000176,375.9105826000159,375.8938135000062,376.51189740002155,376.51189740002155,None,379.8243833000015,None,right,0.5609676000021864,379.8243833000015,None,380.4105338000227,None,right,0.1881973999843467,380.4105338000227,None,MissingImages,001,2022-06-15_10h12.11.616,ABstudy,2022.1.4,60.08882329990377,
AB,Lag1_T1P_T2P,1,P,P,5,6,4,3,9,elephant,Did you see the elephant?,0.3,0.016,JPG\,celery,brownsugar,key01,sunglasses04,asianelephant,blender,dice05a,tennisball01b,scarf,blankImage,blankImage,blankImage,blankImage,blankImage,blankImage,blankImage,blankImage,asianelephant,,,,,0,54,54,54,,,,,,,,,,,,,,,,,,,,,,,,,resources\JPG\asianelephant.jpg,,,,,,,380.6306718000269,381.6438640000124,381.6272171000019,382.23396890002186,382.23396890002186,None,385.12522080002236,None,right,0.5872899999958463,385.12522080002236,None,385.74371200002497,None,right,0.17967690000659786,385.74371200002497,None,MissingImages,001,2022-06-15_10h12.11.616,ABstudy,2022.1.4,60.08882329990377,
AB,Lag1_T1P_T2P,1,P,P,5,6,4,5,11,beaver,Did you see the beaver?,0.3,0.016,JPG\,belt02a,sunglasses04,computerkeyboard02,cherry01,beaver,blender,watch02a,dice05a,blueberry01,spoon01,match,blankImage,blankImage,blankImage,blankImage,blankImage,blankImage,beaver,,,,,0,55,55,55,,,,,,,,,,,,,,,,,,,,,,,,,,,,,,,,385.9449252000195,386.96037930002785,386.9437048000109,387.5602798000036,387.5602798000036,None,390.9120043000148,None,right,0.4681090999802109,390.9120043000148,None,391.41033340001013,None,right,0.14025009999750182,391.41033340001013,None,MissingImages,001,2022-06-15_10h12.11.616,ABstudy,2022.1.4,60.08882329990377,
AB,Lag1_T1P_T2P,1,P,P,8,9,7,3,12,Blender,Did you see the Blender?,0.3,0.016,JPG\,eraser,measuringcup01,chain01,birthdaycandle,ring01,rice,stapler03a,blender,blender,celery,microscope,sunglasses04,blankImage,blankImage,blankImage,blankImage,blankImage,blender,,,,,0,56,56,56,,,,,,,,,,,,,,,,,,,,,,,,,,,,,,,,391.57699320002575,392.5770065000106,392.5604328000045,393.19182370000635,393.19182370000635,None,396.86543580002035,397.8768462000007,right,3.6019344000087585,396.86543580002035,None,400.49356530001387,None,right,0.4955398000020068,400.49356530001387,None,MissingImages,001,2022-06-15_10h12.11.616,ABstudy,2022.1.4,60.08882329990377,
AB,Lag1_T1P_T2P,1,P,P,8,9,7,5,14,bullet,Did you see the bullet?,0.3,0.016,JPG\,measuringcup01,dice05a,greenolive,lipstick02a,feather03a,balloon01b,lighter01,bullet,blender,plate01b,microscope,brick,thermometer02b,screw02,blankImage,blankImage,blankImage,bullet,,,,,0,57,57,57,,,,,,,,,,,,,,,,,,,,,,,,,,,,,,,,401.0109633000102,402.01043430002755,402.01043430002755,402.6353710000112,402.6353710000112,None,406.8859775000019,None,right,0.4174607000022661,406.8859775000019,None,407.3267897000187,None,right,0.1550944999908097,407.3267897000187,None,MissingImages,001,2022-06-15_10h12.11.616,ABstudy,2022.1.4,60.08882329990377,
AB,Lag1_T1P_T2P,1,P,P,8,9,7,3,12,cactus,Did you see the cactus?,0.3,0.016,JPG\,tennisball01b,paintbrush01,medal02b,apple07,speaker04,iron01b,avocado01,cactus,blender,toiletpaper01a,watermelon01,candle01,blankImage,blankImage,blankImage,blankImage,blankImage,cactus,,,,,0,58,58,58,,,,,,,,,,,,,,,,,,,,,,,,,,,,,,,,407.509959100018,408.51007800002117,408.49354800002766,409.1129830000282,409.1129830000282,None,412.90064850001363,None,right,0.4820458000176586,412.90064850001363,None,413.4103192000184,None,right,0.12782199998036958,413.4103192000184,None,MissingImages,001,2022-06-15_10h12.11.616,ABstudy,2022.1.4,60.08882329990377,
AB,Lag1_T1P_T2P,1,P,P,7,8,6,4,12,cow,Did you see the cow?,0.3,0.016,JPG\,fork03c,plate01b,toiletpaper01a,greenolive,rice,blueberry01,cow,blender,envelope03a,orange,book01b,pencil01,blankImage,blankImage,blankImage,blankImage,blankImage,cow,,,,,0,59,59,59,,,,,,,,,,,,,,,,,,,,,,,,,,,,,,,,413.55980030001956,414.560209200019,414.5435641000222,415.14911260001827,415.14911260001827,None,418.7620448000089,None,right,0.46767799998633564,418.7620448000089,None,419.2600759000052,None,right,0.15434050001204014,419.2600759000052,None,MissingImages,001,2022-06-15_10h12.11.616,ABstudy,2022.1.4,60.08882329990377,
AB,Lag1_T1P_T2P,1,P,P,7,8,6,5,13,disco ball,Did you see the disco ball?,0.3,0.016,JPG\,candle01,paintbrush01,scissors01,fan,microscope,toothbrush03b,discoball,blender,teabag,pencil01,lemon02,ashtray01,shirt02,blankImage,blankImage,blankImage,blankImage,discoball,,,,,0,60,60,60,,,,,,,,,,,,,,,,,,,,,,,,,,,,,,,,419.4484449000156,420.4600260000152,420.4432893000194,421.0509926000086,421.0509926000086,None,425.02455350002856,None,right,0.4056760000239592,425.02455350002856,None,425.45986500001163,None,right,0.1988707999989856,425.45986500001163,None,MissingImages,001,2022-06-15_10h12.11.616,ABstudy,2022.1.4,60.08882329990377,
AB,Lag1_T1P_T2P,1,P,P,6,7,5,3,10,drum sticks,Did you see the drum sticks?,0.3,0.016,JPG\,pineapple01a,tennisball01b,computerkeyboard02,feather03a,belt02a,drumstick,blender,blueberry01,medal02b,alligator,blankImage,blankImage,blankImage,blankImage,blankImage,blankImage,blankImage,drumstick,,,,,0,61,61,61,,,,,,,,,,,,,,,,,,,,,,,,,,,,,,,,425.68093570001656,426.69299630000023,426.6764149000228,427.2936575000058,427.2936575000058,None,430.33460410000407,None,right,0.40732260001823306,430.33460410000407,None,430.7598883000028,None,right,0.1698098999913782,430.7598883000028,None,MissingImages,001,2022-06-15_10h12.11.616,ABstudy,2022.1.4,60.08882329990377,
AB,Lag1_T1P_T2P,1,P,P,8,9,7,5,14,finger print,Did you see the finger print?,0.3,0.016,JPG\,chain01,pen04b,birthdaycandle,watermelon01,broom01,scissors01,measuringcup01,fingerprint,blender,calculator01,ashtray01,feather03a,sewingmachine01a,thermometer02b,blankImage,blankImage,blankImage,fingerprint,,,,,0,62,62,62,,,,,,,,,,,,,,,,,,,,,,,,,,,,,,,,430.9638510000077,431.97626790002687,431.95966450002743,432.5481446000049,432.5481446000049,None,436.7885246000078,None,right,0.41307809998397715,436.7885246000078,None,437.2262287000194,None,right,0.17073700000764802,437.2262287000194,None,MissingImages,001,2022-06-15_10h12.11.616,ABstudy,2022.1.4,60.08882329990377,
AB,Lag1_T1P_T2P,1,P,P,5,6,4,3,9,hockey stick,Did you see the hockey stick?,0.3,0.016,JPG\,violin,pizza,toothbrush03b,pineapple01a,hockeystick,blender,candy,dandelion,clock04,blankImage,blankImage,blankImage,blankImage,blankImage,blankImage,blankImage,blankImage,hockeystick,,,,,0,63,63,63,,,,,,,,,,,,,,,,,,,,,,,,,,,,,,,,437.5124859000207,438.5262320000038,438.5097265000222,439.1220013000129,439.1220013000129,None,441.80361630002153,None,right,0.46045780001441017,441.80361630002153,None,442.29283280001255,None,right,0.14386969999759458,442.29283280001255,None,MissingImages,001,2022-06-15_10h12.11.616,ABstudy,2022.1.4,60.08882329990377,
AB,Lag1_T1P_T2P,1,P,P,8,9,7,4,13,Hula hoop,Did you see the Hula hoop?,0.3,0.016,JPG\,brownsugar,candle01,match,printer02,broom01,balloon01b,belt02a,hulahoop,blender,feather03a,rice,mushroom01,pencil01,blankImage,blankImage,blankImage,blankImage,hulahoop,,,,,0,64,64,64,,,,,,,,,,,,,,,,,,,,,,,,,,,,,,,,442.4626039000286,443.47614820001763,443.45950770002673,444.07839830001467,444.07839830001467,None,448.0413457000104,None,right,0.37233409998589195,448.0413457000104,None,448.44285470002797,None,right,0.12945149998995475,448.44285470002797,None,MissingImages,001,2022-06-15_10h12.11.616,ABstudy,2022.1.4,60.08882329990377,
AB,Lag1_T1P_T2P,1,P,P,5,6,4,4,10,Ladybug,Did you see the Ladybug?,0.3,0.016,JPG\,key01,apple07,ring01,leaf02a,ladybug03,blender,violin,sponge01,baseball01a,thermometer02b,blankImage,blankImage,blankImage,blankImage,blankImage,blankImage,blankImage,ladybug03,,,,,0,65,65,65,,,,,,,,,,,,,,,,,,,,,,,,,,,,,,,,448.59585330000846,449.60942950000754,449.59268470000825,450.1936064000183,450.1936064000183,None,453.3499450000236,None,right,0.45253839998622425,453.3499450000236,None,453.8260216000199,None,right,0.13514629998826422,453.8260216000199,None,MissingImages,001,2022-06-15_10h12.11.616,ABstudy,2022.1.4,60.08882329990377,
AB,Lag1_T1P_T2P,1,P,P,7,8,6,3,11,compass,Did you see the compass?,0.3,0.016,JPG\,brick,plate01b,pen04b,toaster01,screwdriver04b,candle01,magneticcompass,blender,coffeemaker,ring01,orange,blankImage,blankImage,blankImage,blankImage,blankImage,blankImage,magneticcompass,,,,,0,66,66,66,,,,,,,,,,,,,,,,,,,,,,,,,,,,,,,,453.99559770000633,455.0091817000066,454.99258560000453,455.6296015000262,455.6296015000262,None,458.9210690000036,None,right,0.3927698999759741,458.9210690000036,None,459.3428470000217,None,right,0.1473182999761775,459.3428470000217,None,MissingImages,001,2022-06-15_10h12.11.616,ABstudy,2022.1.4,60.08882329990377,
AB,Lag1_T1P_T2P,1,P,P,7,8,6,3,11,Moose,Did you see the Moose?,0.3,0.016,JPG\,sock01a,spoon01,alligator,comb02a,printer02,medal02b,moose,blender,greenolive,computerkeyboard02,cauliflower01,blankImage,blankImage,blankImage,blankImage,blankImage,blankImage,moose,,,,,0,67,67,67,,,,,,,,,,,,,,,,,,,,,,,,,,,,,,,,459.50905480000074,460.509171600017,460.49234550000983,461.11148060002597,461.11148060002597,None,464.4836791000271,None,right,0.4405468000040855,464.4836791000271,None,464.9426624000189,None,right,0.14748810001765378,464.9426624000189,None,MissingImages,001,2022-06-15_10h12.11.616,ABstudy,2022.1.4,60.08882329990377,
AB,Lag1_T1P_T2P,1,P,P,8,9,7,4,13,peacock,Did you see the peacock?,0.3,0.016,JPG\,hammer01,sponge01,toaster01,cherry01,feather03a,mushroom01,measuringcup01,peacock,blender,brick,clock04,medal02b,teabag,blankImage,blankImage,blankImage,blankImage,peacock,,,,,0,68,68,68,,,,,,,,,,,,,,,,,,,,,,,,,,,,,,,,465.1172256000282,466.1259009000205,466.1093708000262,466.7050587000267,466.7050587000267,None,470.82281060001696,None,right,0.393651399994269,470.82281060001696,None,471.24243940002634,None,right,0.13180190001730807,471.24243940002634,None,MissingImages,001,2022-06-15_10h12.11.616,ABstudy,2022.1.4,60.08882329990377,
AB,Lag1_T1P_T2P,1,P,P,7,8,6,4,12,rooster,Did you see the rooster?,0.3,0.016,JPG\,pizza,strawberry,potato02b,speaker04,battery02b,iron01b,rooster,blender,globe,banana01,medal02b,baseball01a,blankImage,blankImage,blankImage,blankImage,blankImage,rooster,,,,,0,69,69,69,,,,,,,,,,,,,,,,,,,,,,,,,,,,,,,,471.3989066000213,472.40930440000375,472.3925207000284,473.02997070000856,473.02997070000856,None,476.65064280002844,None,right,0.3697410000022501,476.65064280002844,None,477.04235910001444,None,right,0.1367706999881193,477.04235910001444,None,MissingImages,001,2022-06-15_10h12.11.616,ABstudy,2022.1.4,60.08882329990377,
AB,Lag1_T1P_T2P,1,P,P,7,8,6,3,11,Sand castle,Did you see the Sand castle?,0.3,0.016,JPG\,thermometer02b,candle08b,comb02a,toothbrush03b,brick,computerkeyboard02,sandcastle,blender,candy,birthdaycandle,clock04,blankImage,blankImage,blankImage,blankImage,blankImage,blankImage,sandcastle,,,,,0,70,70,70,,,,,,,,,,,,,,,,,,,,,,,,,,,,,,,,477.2106255000108,478.2257372000022,478.2091559000255,478.81724650002434,478.81724650002434,None,482.209322300012,None,right,0.41475729999365285,482.209322300012,None,482.64222040001187,None,right,0.14638879999984056,482.64222040001187,None,MissingImages,001,2022-06-15_10h12.11.616,ABstudy,2022.1.4,60.08882329990377,
AB,Lag1_T1P_T2P,1,P,P,8,9,7,3,12,Sheep,Did you see the Sheep?,0.3,0.016,JPG\,celery,orange,scissors01,balloon01b,avocado01,printer02,mushroom01,sheep,blender,dice05a,ashtray01,fan,blankImage,blankImage,blankImage,blankImage,blankImage,sheep,,,,,0,71,71,71,,,,,,,,,,,,,,,,,,,,,,,,,,,,,,,,482.8107689000026,483.82577800002764,483.8092369000078,484.4133337000094,484.4133337000094,None,488.1339242000249,None,right,0.38942009999300353,488.1339242000249,None,488.5420562000072,None,right,0.15378320001764223,488.5420562000072,None,MissingImages,001,2022-06-15_10h12.11.616,ABstudy,2022.1.4,60.08882329990377,
AB,Lag1_T1P_T2P,1,P,P,6,7,5,3,10,spider web,Did you see the spider web?,0.3,0.016,JPG\,toaster01,chain01,sponge01,baseball01a,carrot01,spiderweb,blender,iron01b,grape01,brick,blankImage,blankImage,blankImage,blankImage,blankImage,blankImage,blankImage,spiderweb,,,,,0,72,72,72,,,,,,,,,,,,,,,,,,,,,,,,,,,,,,,,488.7254259000183,489.72556760002044,489.7090379000001,490.3325767000206,490.3325767000206,None,493.4178498000256,None,right,0.367307799984701,493.4178498000256,None,493.80870130000403,None,right,0.14526889999979176,493.80870130000403,None,MissingImages,001,2022-06-15_10h12.11.616,ABstudy,2022.1.4,60.08882329990377,
AB,Lag1_T1P_T2P,1,P,P,7,8,6,3,11,trampoline,Did you see the trampoline?,0.3,0.016,JPG\,dice05a,watch02a,coffeemaker,lighter01,button01,strawberry,trampoline,blender,plate01b,pen04b,feather03a,blankImage,blankImage,blankImage,blankImage,blankImage,blankImage,trampoline,,,,,0,73,73,73,,,,,,,,,,,,,,,,,,,,,,,,,,,,,,,,493.97534530001576,494.97530420002295,494.97530420002295,495.5901636000199,495.5901636000199,None,498.9629385000153,None,right,0.3312020000012126,498.9629385000153,None,499.325454100006,None,right,0.12387169999419712,499.325454100006,None,MissingImages,001,2022-06-15_10h12.11.616,ABstudy,2022.1.4,60.08882329990377,
AB,Lag1_T1P_T2P,1,P,P,7,8,6,4,12,trophy,Did you see the trophy?,0.3,0.016,JPG\,cherry01,cymbal,envelope03a,foosballtable,shirt02,cellphone,trophy01,blender,battery02b,apple07,pencil01,screwdriver04b,blankImage,blankImage,blankImage,blankImage,blankImage,trophy01,,,,,0,74,74,74,,,,,,,,,,,,,,,,,,,,,,,,,,,,,,,,499.4822230999998,500.49208590001217,500.4753509000002,501.10015620000195,501.10015620000195,None,504.6984627000056,None,right,0.3212166999874171,504.6984627000056,None,505.04195340001024,None,right,0.14191519998712465,505.04195340001024,None,MissingImages,001,2022-06-15_10h12.11.616,ABstudy,2022.1.4,60.08882329990377,
AB,Lag1_T1P_T2P,1,P,P,6,7,5,3,10,windmill,Did you see the windmill?,0.3,0.016,JPG\,pizza,printer02,medal02b,spoon01,grape01,windmill,blender,watermelon01,celery,battery02b,blankImage,blankImage,blankImage,blankImage,blankImage,blankImage,blankImage,windmill,,,,,0,75,75,75,,,,,,,,,,,,,,,,,,,,,,,,,,,,,,,,505.2093414000119,506.2085370000277,506.2085370000277,506.8333909000212,506.8333909000212,None,509.9464463000186,None,right,0.44314650000887923,509.9464463000186,None,510.4084345000156,None,right,0.1374985000002198,510.4084345000156,None,MissingImages,001,2022-06-15_10h12.11.616,ABstudy,2022.1.4,60.08882329990377,
AB,Lag1_T1P_T2P,1,P,P,7,8,6,5,13,arrow,Did you see the arrow?,0.3,0.016,JPG\,pencil01,broccoli01a,button01,sponge01,watermelon01,lipstick02a,arrow02,blender,lighter01,sock01a,spoon01,blueberry01,belt02a,blankImage,blankImage,blankImage,blankImage,arrow02,,,,,0,76,76,76,,,,,,,,,,,,,,,,,,,,,,,,,,,,,,,,510.5750780000235,511.5750531000085,511.558416600019,512.1588631000195,512.1588631000195,None,516.1012899000198,517.1085172000166,right,0.9926816999795847,516.1012899000198,None,517.1252162000164,None,right,0.1485734999878332,517.1252162000164,None,MissingImages,001,2022-06-15_10h12.11.616,ABstudy,2022.1.4,60.08882329990377,
AB,Lag1_T1P_T2P,1,P,P,8,9,7,4,13,Bird House,Did you see the Bird House?,0.3,0.016,JPG\,toiletpaper01a,mushroom01,medal02b,sandal,rice,cd,feather03a,birdhouse,blender,garlic01a,toaster01,belt02a,cigarette,blankImage,blankImage,blankImage,blankImage,birdhouse,,,,,0,77,77,77,,,,,,,,,,,,,,,,,,,,,,,,,,,,,,,,517.2986915000074,518.3083977000206,518.2921432000003,518.9090920000162,518.9090920000162,None,522.8555912000011,None,right,0.6954040999989957,522.8555912000011,None,523.5749028999999,None,right,0.16576299999724142,523.5749028999999,None,MissingImages,001,2022-06-15_10h12.11.616,ABstudy,2022.1.4,60.08882329990377,
,,,,,,,,,,,,,,,,,,,,,,,,,,,,,,,,,,,,,,,,,,,,,,,,,,,,,,,,,,,,,,,,,,,,,,,,523.7655527000024,524.7748850000207,524.7415510000137,525.3638947000145,525.3638947000145,None,529.0688187000051,None,right,0.5915217000001576,529.0688187000051,None,,,,,,,,,,,,,
