TrialType,CondType,Lag,T1_PA,T2_PA,T1Loc,T2Loc,PreDistractor,PostDistractor,TotalImg,cueWord,T1cue,StimLength,isi,PicFolder,Img1,Img2,Img3,Img4,Img5,Img6,Img7,Img8,Img9,Img10,Img11,Img12,Img13,Img14,Img15,Img16,Img17,T1_Identity,Practice_Trials.thisRepN,Practice_Trials.thisTrialN,Practice_Trials.thisN,Practice_Trials.thisIndex,trials.thisRepN,trials.thisTrialN,trials.thisN,trials.thisIndex,Practice_Ins.started,Practice_Ins.stopped,End_Prac_Ins.keys,End_Prac_Ins.rt,End_Prac_Ins.started,End_Prac_Ins.stopped,text_2.started,text_2.stopped,Fixation_Cross_2.started,Fixation_Cross_2.stopped,Rapid_Image_Present_2.started,Rapid_Image_Present_2.stopped,key_resp.keys,key_resp.rt,key_resp.started,key_resp.stopped,T1Response_2.started,T1Response_2.stopped,T2Response_2.started,T2Response_2.stopped,key_resp_4.keys,key_resp_4.rt,key_resp_4.started,key_resp_4.stopped,text.started,text.stopped,End_Instructions.keys,End_Instructions.rt,End_Instructions.started,End_Instructions.stopped,text_5.started,text_5.stopped,FC.started,FC.stopped,Rapid_Image_Present.started,Rapid_Image_Present.stopped,T1Response.started,T1Response.stopped,key_resp_2.keys,key_resp_2.rt,key_resp_2.started,key_resp_2.stopped,T2Response.started,T2Response.stopped,key_resp_3.keys,key_resp_3.rt,key_resp_3.started,key_resp_3.stopped,participant,session,date,expName,psychopyVersion,frameRate,
,,,,,,,,,,,,,,,,,,,,,,,,,,,,,,,,,,,,,,,,,12.335622699931264,None,space,75.74200290068984,12.335622699931264,None,,,,,,,,,,,,,,,,,,,,,,,,,,,,,,,,,,,,,,,,,,,test,001,2022-06-16_14h58.38.975,ABstudy,2022.1.4,59.96674251249133,
AB,Lag1_T1P_T2P,1,P,P,8,9,7,5,14,Tennis racket,Did you see the Tennis racket?,0.5,0.016,JPG\,coconut,computermouse06,croissant01,deodorant02a,pillow01a,peanut01,boot02b,tennisracket,blender,crayon,eggplant,marker01a,plant01,radish01,blankImage,blankImage,blankImage,tennisracket,0,0,0,0,,,,,,,,,,,88.18406909983605,89.19071589969099,89.17397249955684,89.83289139997214,89.83289139997214,None,left,1.1154814008623362,96.82659459952265,None,96.82659459952265,97.83259089943022,97.96625569928437,None,left,0.36004750058054924,97.96625569928437,None,,,,,,,,,,,,,,,,,,,,,,,,,test,001,2022-06-16_14h58.38.975,ABstudy,2022.1.4,59.96674251249133,
AB,Lag1_T1P_T2P,1,P,P,6,7,5,5,12,triangle,Did you see the triangle?,0.5,0.016,JPG\,ginger,mousetrap,plum01,slipper01b,dropper01,triangle,blender,pants,raspberry01,rope03,scale01a,vase01,blankImage,blankImage,blankImage,blankImage,blankImage,triangle,0,1,1,1,,,,,,,,,,,98.35857089981437,99.36736289970577,99.3507376993075,99.95076179970056,99.95076179970056,None,left,0.7713271006941795,106.00275369919837,None,106.00275369919837,None,106.791280599311,None,left,0.23024130146950483,106.791280599311,None,,,,,,,,,,,,,,,,,,,,,,,,,test,001,2022-06-16_14h58.38.975,ABstudy,2022.1.4,59.96674251249133,
AB,Lag5_T1P_T2P,5,P,P,7,12,6,3,15,vacuum,Did you see the vacuum?,0.5,0.016,JPG\,fork07b,lightbulb01,manshoe,saw02b,shoelace,soap03a,vacuumcleaner01,floortile01,necklace,doll,cabbage,blender,hanger02a,laptop01a,nailpolish03b,blankImage,blankImage,vacuumcleaner01,0,2,2,2,,,,,,,,,,,107.04146519955248,108.04253569990396,108.02585829980671,108.60001619998366,108.60001619998366,None,left,0.45901660062372684,116.19411249924451,None,116.19411249924451,None,116.68459309916943,None,left,0.12053060159087181,116.68459309916943,None,,,,,,,,,,,,,,,,,,,,,,,,,test,001,2022-06-16_14h58.38.975,ABstudy,2022.1.4,59.96674251249133,
AB,Lag5_T1P_T2P,5,P,P,5,10,4,5,15,Vulture,Did you see the Vulture?,0.5,0.016,JPG\,shorts01,toast,ramekin01,bib,vulture,cracker02,date,glasses01a,hat03b,blender,measuringtape01,nail,pill,drum01,starfish01,blankImage,blankImage,vulture,0,3,3,3,,,,,,,,,,,116.84399689920247,117.85274629946798,117.83601409941912,118.4108018996194,118.4108018996194,None,left,0.45070720091462135,126.03458449989557,None,126.03458449989557,None,126.51120299939066,None,left,0.14992100093513727,126.51120299939066,None,,,,,,,,,,,,,,,,,,,,,,,,,test,001,2022-06-16_14h58.38.975,ABstudy,2022.1.4,59.96674251249133,
AB,Lag5_T1P_T2P,5,P,P,5,10,4,5,15,washing machine,Did you see the washing machine?,0.5,0.016,JPG\,waterbottle03,wheel01,flashlight02b,zucchini01,washingmachine,headphones02b,nutcracker01,paintroller01,paperclip03,blender,ribbon04,electricrazor,bottleofredwine01,pitabread,pot02a,blankImage,blankImage,washingmachine,0,4,4,4,,,,,,,,,,,126.68981639947742,127.69576440006495,127.6622668998316,128.23966169916093,128.23966169916093,None,left,0.4002324007451534,135.7823506994173,None,135.7823506994173,None,136.20434549916536,None,left,0.18525150138884783,136.20434549916536,None,,,,,,,,,,,,,,,,,,,,,,,,,test,001,2022-06-16_14h58.38.975,ABstudy,2022.1.4,59.96674251249133,
AB,Lag1_T1P_T2A,1,P,A,8,9,7,5,14,flower,Did you see the flower?,0.5,0.016,JPG\,razor01,axe01,binder03b,bowl01,kettle01,lettuce,lime,plasticflower01b,mitten04,pencilcase01,plunger02,strawbasket01,toothpick02,wallet02a,blankImage,blankImage,blankImage,plasticflower01b,0,5,5,5,,,,,,,,,,,136.48832509946078,137.48892299924046,137.4722208995372,138.0496141994372,138.0496141994372,None,left,0.384510301053524,145.1571408994496,None,145.1571408994496,None,145.56343830004334,None,left,0.13819089997559786,145.56343830004334,None,,,,,,,,,,,,,,,,,,,,,,,,,test,001,2022-06-16_14h58.38.975,ABstudy,2022.1.4,59.96674251249133,
AB,Lag1_T1P_T2A,1,P,A,5,6,4,5,11,Webcam,Did you see the Webcam?,0.5,0.016,JPG\,pictureframe04,stapleremover,straw,adjustablewrench01b,webcam,cane,hairdryer02a,icepack,kitchenscale01a,lifejacket,piggybank,blankImage,blankImage,blankImage,blankImage,blankImage,blankImage,webcam,0,6,6,6,,,,,,,,,,,145.73749349918216,146.74814149923623,146.73150820005685,147.31856859941036,147.31856859941036,None,left,0.6582827009260654,152.931284699589,None,152.931284699589,None,153.62158839963377,None,left,0.13597250077873468,153.62158839963377,None,,,,,,,,,,,,,,,,,,,,,,,,,test,001,2022-06-16_14h58.38.975,ABstudy,2022.1.4,59.96674251249133,
AB,Lag5_T1P_T2A,5,P,A,6,11,5,5,16,Wheat,Did you see the Wheat?,0.5,0.016,JPG\,bottleopener01,dentalfloss03b,cooler01,icecreamcone01a,paperclip01b,wheat,pencilsharpener02a,plasticbasket01a,toycar04,apricot,hairclip02,rock01a,honeydewmelon,antenna,blackberry,cardboardbox,blankImage,wheat,0,7,7,7,,,,,,,,,,,153.7895121993497,154.78941879980266,154.77281129918993,155.35641339980066,155.35641339980066,None,left,0.5807216009125113,163.40850919950753,None,163.40850919950753,None,164.0161486994475,None,left,0.12561460118740797,164.0161486994475,None,,,,,,,,,,,,,,,,,,,,,,,,,test,001,2022-06-16_14h58.38.975,ABstudy,2022.1.4,59.96674251249133,
AB,Lag5_T1P_T2A,5,P,A,6,11,5,5,16,bread,Did you see the bread?,0.5,0.016,JPG\,cleaver01,clipboard,dustpan,hikingshoe01,notebook03a,baguette01,playingcard,pliers02b,styrofoamcup,rollingpin01a,swimgoggles,wineglass01,fryingpan02a,safetypin,syringe01,thimble,blankImage,baguette01,0,8,8,8,,,,,,,,,,,164.1715452997014,165.1830614991486,165.1663854997605,165.74559059925377,165.74559059925377,None,left,2.7269016010686755,173.7589942999184,None,173.7589942999184,174.75929009914398,176.51105399988592,None,left,0.15871160104870796,176.51105399988592,None,,,,,,,,,,,,,,,,,,,,,,,,,test,001,2022-06-16_14h58.38.975,ABstudy,2022.1.4,59.96674251249133,
AB,Lag5_T1A_T2P,5,A,P,6,11,5,3,14,dog,Did you see the dog?,0.5,0.016,JPG\,bucket01a,doorlock,cookiecutter,fireextinguisher01,gluestick,highlighter02b,sportbag,spraybottle01,suitcase,thread02,blender,walnut01c,icecubetray01a,vikingmask01b,blankImage,blankImage,blankImage,None,0,9,9,9,,,,,,,,,,,176.69705349951982,177.71227739937603,177.67891099955887,178.26723859924823,178.26723859924823,None,left,1.1184179009869695,185.3588589997962,None,185.3588589997962,186.37119609955698,186.50423579942435,None,left,0.20489830058068037,186.50423579942435,None,,,,,,,,,,,,,,,,,,,,,,,,,test,001,2022-06-16_14h58.38.975,ABstudy,2022.1.4,59.96674251249133,
AB,Lag1_T1A_T2A,1,A,A,8,9,7,3,12,Moose,Did you see the Moose?,0.5,0.016,JPG\,clothespin03b,corkscrew03a,drillbit03a,fusilli03a,needlenosepliers01,perfume01a,pistachio,scrubbingbrush05b,spatula03,toothpastetube,hinge,toydinosaur,blankImage,blankImage,blankImage,blankImage,blankImage,None,0,10,10,10,,,,,,,,,,,186.73831839952618,187.73915869928896,187.72248099930584,188.33206949941814,188.33206949941814,None,left,0.42290010023862123,194.36764649953693,None,194.36764649953693,None,194.81269990000874,None,left,0.17687990050762892,194.81269990000874,None,,,,,,,,,,,,,,,,,,,,,,,,,test,001,2022-06-16_14h58.38.975,ABstudy,2022.1.4,59.96674251249133,
AB,Lag5_T1A_T2A,5,A,A,6,11,5,5,16,castle,Did you see the castle?,0.5,0.016,JPG\,tape02a,englishmuffin,flask,ladle02a,monitor,peach01,keychain,squeegee01b,telephone01b,whisk,walkman,syringe02,baguette01,coaster,box01a,coffeepot03a,blankImage,None,0,11,11,11,,,,,,,,,,,195.01724539976567,196.03084439970553,195.9973798999563,196.5916305994615,196.5916305994615,None,left,1.5782115012407303,204.70779799949378,None,204.70779799949378,205.70722039975226,206.30786969978362,None,left,0.1300744004547596,206.30786969978362,None,,,,,,,,,,,,,,,,,,,,,,,,,test,001,2022-06-16_14h58.38.975,ABstudy,2022.1.4,59.96674251249133,
,,,,,,,,,,,,,,,,,,,,,,,,,,,,,,,,,,,,,,,,,,,,,,,,,,,,,,,,,,,,,,,,,206.45813349913806,None,space,4.387348401360214,206.45813349913806,None,,,,,,,,,,,,,,,,,,,test,001,2022-06-16_14h58.38.975,ABstudy,2022.1.4,59.96674251249133,
AB,Lag1_T1P_T2P,1,P,P,8,9,7,5,14,giraffe,Did you see the giraffe?,0.2,0.016,JPG\,pencil01,foosballtable,banana01,lipstick02a,toaster01,grape01,key01,giraffe,blender,pineapple01a,strawberry,teabag,dandelion,paintbrush01,blankImage,blankImage,blankImage,giraffe,,,,,0,0,0,0,,,,,,,,,,,,,,,,,,,,,,,,,,,,,,,211.32624409999698,212.33043929934502,212.31372579932213,212.92464119940996,212.92464119940996,None,215.71025189943612,None,left,0.72025650087744,215.71025189943612,None,216.4541374994442,None,left,0.1832475010305643,216.4541374994442,None,test,001,2022-06-16_14h58.38.975,ABstudy,2022.1.4,59.96674251249133,
AB,Lag1_T1P_T2P,1,P,P,6,7,5,5,12,owl,Did you see the owl?,0.2,0.016,JPG\,paintbrush01,eraser,medal02b,hammer01,speaker04,greathornowl,blender,comb02a,plate01b,clock01a,button01,globe,blankImage,blankImage,blankImage,blankImage,blankImage,greathornowl,,,,,0,1,1,1,,,,,,,,,,,,,,,,,,,,,,,,,,,,,,,216.67207570001483,217.68566089961678,217.6688884999603,218.2548038996756,218.2548038996756,None,220.6591988997534,None,left,0.7078037010505795,220.6591988997534,None,221.38943889923394,None,left,0.4802352003753185,221.38943889923394,None,test,001,2022-06-16_14h58.38.975,ABstudy,2022.1.4,59.96674251249133,
AB,Lag1_T1P_T2P,1,P,P,6,7,5,3,10,handcuffs,Did you see the handcuffs?,0.2,0.016,JPG\,sewingmachine01a,scarf,carrot01,book01b,eraser,handcuffs,blender,lipstick02a,printer02,garlic01a,blankImage,blankImage,blankImage,blankImage,blankImage,blankImage,blankImage,handcuffs,,,,,0,2,2,2,,,,,,,,,,,,,,,,,,,,,,,,,,,,,,,221.8963172994554,222.90747849922627,222.89096969924867,223.47541600000113,223.47541600000113,None,225.58143519982696,None,left,0.32889760099351406,225.58143519982696,None,225.92715809959918,None,left,0.1420546006411314,225.92715809959918,None,test,001,2022-06-16_14h58.38.975,ABstudy,2022.1.4,59.96674251249133,
AB,Lag1_T1P_T2P,1,P,P,7,8,6,5,13,horse,Did you see the horse?,0.2,0.016,JPG\,watermelon01,pencil01,microscope,blueberry01,computerkeyboard02,lamp04a,horse,blender,sock01a,key01,binoculars01b,cauliflower01,ashtray01,blankImage,blankImage,blankImage,blankImage,horse,,,,,0,3,3,3,,,,,,,,,,,,,,,,,,,,,,,,,,,,,,,226.09553799964488,227.0952150998637,227.07850059960037,227.67154929973185,227.67154929973185,None,230.35303919948637,None,left,0.4683158006519079,230.35303919948637,None,230.84905959945172,None,left,0.15640960074961185,230.84905959945172,None,test,001,2022-06-16_14h58.38.975,ABstudy,2022.1.4,59.96674251249133,
AB,Lag1_T1P_T2P,1,P,P,6,7,5,5,12,snowman,Did you see the snowman?,0.2,0.016,JPG\,comb02a,watch02a,scissors01,dice05a,tableknife02,snowman,blender,printer02,dandelion,spoon01,ashtray01,battery02b,blankImage,blankImage,blankImage,blankImage,blankImage,snowman,,,,,0,4,4,4,,,,,,,,,,,,,,,,,,,,,,,,,,,,,,,231.0392505992204,232.05015589948744,232.03345059975982,232.61784219928086,232.61784219928086,None,235.09931499976665,None,left,0.4826140012592077,235.09931499976665,None,235.60374159924686,None,left,0.16213990096002817,235.60374159924686,None,test,001,2022-06-16_14h58.38.975,ABstudy,2022.1.4,59.96674251249133,
AB,Lag1_T1P_T2P,1,P,P,5,6,4,5,11,squirrel,Did you see the squirrel?,0.2,0.016,JPG\,pencil01,orange,clock01a,sponge01,squirrel,blender,lipstick02a,strawberry,book01b,mushroom01,envelope03a,blankImage,blankImage,blankImage,blankImage,blankImage,blankImage,squirrel,,,,,0,5,5,5,,,,,,,,,,,,,,,,,,,,,,,,,,,,,,,235.79753499943763,236.80532359983772,236.78869509976357,237.35634599998593,237.35634599998593,None,239.63993419986218,None,left,0.46123120095580816,239.63993419986218,None,240.12637619953603,None,left,0.16006150096654892,240.12637619953603,None,test,001,2022-06-16_14h58.38.975,ABstudy,2022.1.4,59.96674251249133,
AB,Lag1_T1P_T2P,1,P,P,7,8,6,4,12,Christmas Tree,Did you see the Christmas Tree?,0.2,0.016,JPG\,sandal,fan,printer02,cellphone,mushroom01,candle08b,firtree,blender,lamp04a,hammer01,teabag,stapler03a,blankImage,blankImage,blankImage,blankImage,blankImage,firtree,,,,,0,6,6,6,,,,,,,,,,,,,,,,,,,,,,,,,,,,,,,240.31956900004297,241.32603959925473,241.3093981994316,241.90653349924833,241.90653349924833,None,244.31991339940578,None,left,0.374167000874877,244.31991339940578,None,244.71282909996808,None,left,0.18910360056906939,244.71282909996808,None,test,001,2022-06-16_14h58.38.975,ABstudy,2022.1.4,59.96674251249133,
AB,Lag1_T1P_T2P,1,P,P,8,9,7,4,13,bowling ball,Did you see the bowling ball?,0.2,0.016,JPG\,dandelion,pineapple01a,broom01,pen04b,sock01a,sandal,foosballtable,bowlingball,blender,toothbrush03b,celery,candle08b,tennisball01b,blankImage,blankImage,blankImage,blankImage,bowlingball,,,,,0,7,7,7,,,,,,,,,,,,,,,,,,,,,,,,,,,,,,,244.98686989955604,245.99741699919105,245.98077739961445,246.4812936000526,246.4812936000526,None,249.1620399998501,None,left,0.33925560023635626,249.1620399998501,None,249.534105299972,None,left,0.1601824015378952,249.534105299972,None,test,001,2022-06-16_14h58.38.975,ABstudy,2022.1.4,59.96674251249133,
AB,Lag1_T1P_T2P,1,P,P,6,7,5,4,11,bowling pin,Did you see the bowling pin?,0.2,0.016,JPG\,strawberry,leaf02a,clock04,candle01,avocado01,bowlingpin,blender,brownsugar,ring01,lemon02,fork03c,blankImage,blankImage,blankImage,blankImage,blankImage,blankImage,bowlingpin,,,,,0,8,8,8,,,,,,,,,,,,,,,,,,,,,,,,,,,,,,,249.72484209947288,250.7355169998482,250.71885299962014,251.309397299774,251.309397299774,None,253.52935520000756,254.53940659947693,left,1.340963600203395,253.52935520000756,None,254.8895360995084,None,left,0.21181230060756207,254.8895360995084,None,test,001,2022-06-16_14h58.38.975,ABstudy,2022.1.4,59.96674251249133,
AB,Lag1_T1P_T2P,1,P,P,5,6,4,5,11,candy cane,Did you see the candy cane?,0.2,0.016,JPG\,shirt02,match,screw02,foosballtable,candycane01a,blender,sewingmachine01a,watch02a,button01,comb02a,dice05a,blankImage,blankImage,blankImage,blankImage,blankImage,blankImage,candycane01a,,,,,0,9,9,9,,,,,,,,,,,,,,,,,,,,,,,,,,,,,,,255.1284700995311,256.1409366996959,256.1241822997108,256.7271133996546,256.7271133996546,None,258.9849193999544,None,left,0.6209863005205989,258.9849193999544,None,259.6274480000138,None,left,0.1624986007809639,259.6274480000138,None,test,001,2022-06-16_14h58.38.975,ABstudy,2022.1.4,59.96674251249133,
AB,Lag1_T1P_T2P,1,P,P,5,6,4,3,9,dolphin,Did you see the dolphin?,0.2,0.016,JPG\,coffeemaker,belt02a,rice,screwdriver04b,dolphin01,blender,candle08b,pear01,feather03a,blankImage,blankImage,blankImage,blankImage,blankImage,blankImage,blankImage,blankImage,dolphin01,,,,,0,10,10,10,,,,,,,,,,,,,,,,,,,,,,,,,,,,,,,259.81361209973693,260.82863969914615,260.79524509981275,261.2957684993744,261.2957684993744,None,263.2426270991564,None,left,0.6271676011383533,263.2426270991564,None,263.89882059954107,None,left,0.16292080096900463,263.89882059954107,None,test,001,2022-06-16_14h58.38.975,ABstudy,2022.1.4,59.96674251249133,
AB,Lag1_T1P_T2P,1,P,P,5,6,4,3,9,camel,Did you see the camel?,0.2,0.016,JPG\,iron01b,brick,broccoli01a,balloon01b,dromedary,blender,sandal,teabag,scissors01,blankImage,blankImage,blankImage,blankImage,blankImage,blankImage,blankImage,blankImage,dromedary,,,,,0,11,11,11,,,,,,,,,,,,,,,,,,,,,,,,,,,,,,,264.08371769916266,265.08363359980285,265.06692309957,265.65066409949213,265.65066409949213,None,267.4987610997632,None,left,0.6107116006314754,267.4987610997632,None,268.1356255998835,None,left,0.15049910079687834,268.1356255998835,None,test,001,2022-06-16_14h58.38.975,ABstudy,2022.1.4,59.96674251249133,
AB,Lag1_T1P_T2P,1,P,P,6,7,5,4,11,football,Did you see the football?,0.2,0.016,JPG\,toaster01,garlic01a,stapler03a,fan,comb02a,football,blender,watch02a,onion,blueberry01,toiletpaper01a,blankImage,blankImage,blankImage,blankImage,blankImage,blankImage,football,,,,,0,12,12,12,,,,,,,,,,,,,,,,,,,,,,,,,,,,,,,268.3152488991618,269.32071769982576,269.3040063995868,269.88213989976794,269.88213989976794,None,272.1088312994689,None,left,0.6335828006267548,272.1088312994689,None,272.77423459943384,None,left,0.11980100069195032,272.77423459943384,None,test,001,2022-06-16_14h58.38.975,ABstudy,2022.1.4,59.96674251249133,
AB,Lag1_T1P_T2P,1,P,P,5,6,4,5,11,golf ball,Did you see the golf ball?,0.2,0.016,JPG\,foosballtable,cigarette,pen04b,birthdaycandle,golfball,blender,binoculars01b,chain01,potato02b,cauliflower01,paintbrush01,blankImage,blankImage,blankImage,blankImage,blankImage,blankImage,golfball,,,,,0,13,13,13,,,,,,,,,,,,,,,,,,,,,,,,,,,,,,,272.93245529942214,273.94204419944435,273.92515849974006,274.4276496991515,274.4276496991515,None,276.7491162000224,None,left,0.46516960114240646,276.7491162000224,None,277.2451990991831,None,left,0.15297090075910091,277.2451990991831,None,test,001,2022-06-16_14h58.38.975,ABstudy,2022.1.4,59.96674251249133,
AB,Lag1_T1P_T2P,1,P,P,5,6,4,5,11,Guitar case,Did you see the Guitar case?,0.2,0.016,JPG\,broccoli01a,scissors01,toothbrush03b,foosballtable,guitarcase,blender,hammer01,toiletpaper01a,cd,garlic01a,carrot01,blankImage,blankImage,blankImage,blankImage,blankImage,blankImage,guitarcase,,,,,0,14,14,14,,,,,,,,,,,,,,,,,,,,,,,,,,,,,,,277.4360638996586,278.4469826994464,278.43030539993197,279.05887739919126,279.05887739919126,None,281.2471426995471,None,left,0.5426554009318352,281.2471426995471,None,281.8166920999065,None,left,0.1413051001727581,281.8166920999065,None,test,001,2022-06-16_14h58.38.975,ABstudy,2022.1.4,59.96674251249133,
AB,Lag1_T1P_T2P,1,P,P,6,7,5,3,10,jelly beans,Did you see the jelly beans?,0.2,0.016,JPG\,lipstick02a,cucumber,candle08b,printer02,grape01,jellybean,blender,lighter01,belt02a,balloon01b,blankImage,blankImage,blankImage,blankImage,blankImage,blankImage,blankImage,jellybean,,,,,0,15,15,15,,,,,,,,,,,,,,,,,,,,,,,,,,,,,,,281.99599549919367,283.001214299351,282.9675999991596,283.5272727999836,283.5272727999836,None,285.6371567994356,None,left,0.37682560086250305,285.6371567994356,None,286.03792119957507,None,left,0.1760192010551691,286.03792119957507,None,test,001,2022-06-16_14h58.38.975,ABstudy,2022.1.4,59.96674251249133,
AB,Lag1_T1P_T2P,1,P,P,5,6,4,3,9,kangaroo,Did you see the kangaroo?,0.2,0.016,JPG\,candle01,shirt02,brick,orange,kangaroo,blender,pizza,thermometer02b,book01b,blankImage,blankImage,blankImage,blankImage,blankImage,blankImage,blankImage,blankImage,kangaroo,,,,,0,16,16,16,,,,,,,,,,,,,,,,,,,,,,,,,,,,,,,286.2416161997244,287.25537239946425,287.23861529957503,287.82000149972737,287.82000149972737,None,289.6370827993378,None,left,0.47231130115687847,289.6370827993378,None,290.12603359948844,None,left,0.15998260118067265,290.12603359948844,None,test,001,2022-06-16_14h58.38.975,ABstudy,2022.1.4,59.96674251249133,
AB,Lag1_T1P_T2P,1,P,P,8,9,7,4,13,kite,Did you see the kite?,0.2,0.016,JPG\,scissors01,balloon01b,eraser,feather03a,banana01,candle01,measuringcup01,kite,blender,strawberry,pear01,carrot01,globe,blankImage,blankImage,blankImage,blankImage,kite,,,,,0,17,17,17,,,,,,,,,,,,,,,,,,,,,,,,,,,,,,,290.31192819960415,291.32615169975907,291.2927377000451,291.87390709947795,291.87390709947795,None,294.5027107996866,None,left,0.5353053007274866,294.5027107996866,None,295.0634209997952,None,left,0.1187285017222166,295.0634209997952,None,test,001,2022-06-16_14h58.38.975,ABstudy,2022.1.4,59.96674251249133,
AB,Lag1_T1P_T2P,1,P,P,5,6,4,5,11,Light switch,Did you see the Light switch?,0.2,0.016,JPG\,iron01b,orange,birthdaycandle,potato02b,lightswitch01,blender,key01,candle08b,celery,tableknife02,pen04b,blankImage,blankImage,blankImage,blankImage,blankImage,blankImage,lightswitch01,,,,,0,18,18,18,,,,,,,,,,,,,,,,,,,,,,,,,,,,,,,295.2645384995267,296.26439759973437,296.26439759973437,296.8658293997869,296.8658293997869,None,299.07600129954517,None,left,0.14627030119299889,299.07600129954517,None,299.25135969929397,None,left,0.9631883008405566,299.25135969929397,None,test,001,2022-06-16_14h58.38.975,ABstudy,2022.1.4,59.96674251249133,
AB,Lag1_T1P_T2P,1,P,P,7,8,6,3,11,locker,Did you see the locker?,0.2,0.016,JPG\,toiletpaper01a,lipstick02a,potato02b,speaker04,globe,strawberry,locker,blender,sock01a,candle08b,pen04b,blankImage,blankImage,blankImage,blankImage,blankImage,blankImage,locker,,,,,0,19,19,19,,,,,,,,,,,,,,,,,,,,,,,,,,,,,,,300.2388316998258,301.2527391994372,301.2359795998782,301.87124609947205,301.87124609947205,None,304.01523799914867,305.0231780996546,left,1.4859574008733034,304.01523799914867,None,305.52312559913844,None,left,0.15438140090554953,305.52312559913844,None,test,001,2022-06-16_14h58.38.975,ABstudy,2022.1.4,59.96674251249133,
AB,Lag1_T1P_T2P,1,P,P,8,9,7,3,12,mail box,Did you see the mail box?,0.2,0.016,JPG\,paintbrush01,dice05a,watermelon01,broccoli01a,hammer01,leaf02a,match,mailbox01,blender,fan,lipstick02a,grape01,blankImage,blankImage,blankImage,blankImage,blankImage,mailbox01,,,,,0,20,20,20,,,,,,,,,,,,,,,,,,,,,,,,,,,,,,,305.7183416998014,306.72486949991435,306.70809459965676,307.2816469995305,307.2816469995305,None,309.6720500998199,None,left,0.8374485000967979,309.6720500998199,None,310.5284319994971,None,left,0.14998280070722103,310.5284319994971,None,test,001,2022-06-16_14h58.38.975,ABstudy,2022.1.4,59.96674251249133,
AB,Lag1_T1P_T2P,1,P,P,5,6,4,3,9,mail box,Did you see the mail box?,0.2,0.016,JPG\,watermelon01,banana01,ring01,pencil01,mailbox02,blender,cucumber,thermometer02b,key01,blankImage,blankImage,blankImage,blankImage,blankImage,blankImage,blankImage,blankImage,mailbox02,,,,,0,21,21,21,,,,,,,,,,,,,,,,,,,,,,,,,,,,,,,310.6951983999461,311.6962847998366,311.679603099823,312.2684693997726,312.2684693997726,None,314.0852071000263,None,left,0.7848309008404613,314.0852071000263,None,314.8996477993205,None,left,0.13831290137022734,314.8996477993205,None,test,001,2022-06-16_14h58.38.975,ABstudy,2022.1.4,59.96674251249133,
AB,Lag1_T1P_T2P,1,P,P,8,9,7,4,13,mattress,Did you see the mattress?,0.2,0.016,JPG\,button01,celery,birthdaycandle,apple07,avocado01,tennisball01b,dice05a,mattress,blender,feather03a,tomato01,scarf,orange,blankImage,blankImage,blankImage,blankImage,mattress,,,,,0,22,22,22,,,,,,,,,,,,,,,,,,,,,,,,,,,,,,,315.1229260992259,316.13556309975684,316.1187591999769,316.74847339931875,316.74847339931875,None,319.300520000048,None,left,0.401642800308764,319.300520000048,None,319.7208752995357,None,left,0.1332471016794443,319.7208752995357,None,test,001,2022-06-16_14h58.38.975,ABstudy,2022.1.4,59.96674251249133,
AB,Lag1_T1P_T2P,1,P,P,5,6,4,3,9,Pumpkin,Did you see the Pumpkin?,0.2,0.016,JPG\,binoculars01b,speaker04,sandal,envelope03a,pumpkin,blender,battery02b,chain01,measuringcup01,blankImage,blankImage,blankImage,blankImage,blankImage,blankImage,blankImage,blankImage,pumpkin,,,,,0,23,23,23,,,,,,,,,,,,,,,,,,,,,,,,,,,,,,,319.87333959992975,320.8723507998511,320.8557015992701,321.44493409991264,321.44493409991264,None,323.3150029992685,None,left,0.4666357012465596,323.3150029992685,None,323.8083555996418,None,left,0.16509850043803453,323.8083555996418,None,test,001,2022-06-16_14h58.38.975,ABstudy,2022.1.4,59.96674251249133,
AB,Lag1_T1P_T2P,1,P,P,7,8,6,5,13,school bus,Did you see the school bus?,0.2,0.016,JPG\,stapler03a,banana01,scissors01,coffeemaker,shirt02,leaf02a,schoolbus,blender,fork03c,tableknife02,balloon01b,match,toothbrush03b,blankImage,blankImage,blankImage,blankImage,schoolbus,,,,,0,24,24,24,,,,,,,,,,,,,,,,,,,,,,,,,,,,,,,323.9945416999981,325.0097095994279,324.97637859918177,325.5651546996087,325.5651546996087,None,328.1931049991399,None,left,0.484281400218606,328.1931049991399,None,328.6967784995213,None,left,0.1734563009813428,328.6967784995213,None,test,001,2022-06-16_14h58.38.975,ABstudy,2022.1.4,59.96674251249133,
AB,Lag1_T1P_T2P,1,P,P,5,6,4,4,10,skateboard,Did you see the skateboard?,0.2,0.016,JPG\,binoculars01b,cymbal,pizza,candy,skateboard,blender,grape01,thermometer02b,speaker04,lemon02,blankImage,blankImage,blankImage,blankImage,blankImage,blankImage,blankImage,skateboard,,,,,0,25,25,25,,,,,,,,,,,,,,,,,,,,,,,,,,,,,,,328.90108359977603,329.9146842993796,329.8979870993644,330.4924653992057,330.4924653992057,None,332.54917349945754,None,left,0.377271200530231,332.54917349945754,None,332.9511049995199,None,left,0.11904050037264824,332.9511049995199,None,test,001,2022-06-16_14h58.38.975,ABstudy,2022.1.4,59.96674251249133,
AB,Lag1_T1P_T2P,1,P,P,5,6,4,5,11,soccer ball,Did you see the soccer ball?,0.2,0.016,JPG\,globe,belt02a,sponge01,violin,soccerball,blender,clock01a,microscope,balloon01b,scarf,teabag,blankImage,blankImage,blankImage,blankImage,blankImage,blankImage,soccerball,,,,,0,26,26,26,,,,,,,,,,,,,,,,,,,,,,,,,,,,,,,333.102826599963,334.10230189934373,334.0856996998191,334.68652539979666,334.68652539979666,None,336.88204929977655,None,left,0.364070400595665,336.88204929977655,None,337.27181989979,None,left,0.12628680001944304,337.27181989979,None,test,001,2022-06-16_14h58.38.975,ABstudy,2022.1.4,59.96674251249133,
AB,Lag1_T1P_T2P,1,P,P,8,9,7,3,12,Wheelchair,Did you see the Wheelchair?,0.2,0.016,JPG\,cigarette,coffeemaker,banana01,strawberry,clock01a,plate01b,spoon01,wheelchair,blender,pineapple01a,chain01,paintbrush01,blankImage,blankImage,blankImage,blankImage,blankImage,wheelchair,,,,,0,27,27,27,,,,,,,,,,,,,,,,,,,,,,,,,,,,,,,337.46577369980514,338.47369229979813,338.45700389984995,339.05015379935503,339.05015379935503,None,341.4229484992102,None,left,0.41520610079169273,341.4229484992102,None,341.8600653996691,None,left,0.13098670076578856,341.8600653996691,None,test,001,2022-06-16_14h58.38.975,ABstudy,2022.1.4,59.96674251249133,
AB,Lag1_T1P_T2P,1,P,P,8,9,7,3,12,zebra,Did you see the zebra?,0.2,0.016,JPG\,apple07,toiletpaper01a,pizza,dandelion,greenolive,eraser,microscope,zebra,blender,lipstick02a,balloon01b,sandal,blankImage,blankImage,blankImage,blankImage,blankImage,zebra,,,,,0,28,28,28,,,,,,,,,,,,,,,,,,,,,,,,,,,,,,,342.0731878997758,343.0782607998699,343.0616676993668,343.6770681999624,343.6770681999624,None,346.0236008996144,None,left,0.28676330111920834,346.0236008996144,None,346.33084689918905,None,left,0.12328050099313259,346.33084689918905,None,test,001,2022-06-16_14h58.38.975,ABstudy,2022.1.4,59.96674251249133,
AB,Lag1_T1P_T2P,1,P,P,6,7,5,3,10,Pool table,Did you see the Pool table?,0.2,0.016,JPG\,tomato01,pen04b,shirt02,carrot01,lamp04a,pooltable,blender,avocado01,sewingmachine01a,apple07,blankImage,blankImage,blankImage,blankImage,blankImage,blankImage,blankImage,pooltable,,,,,0,29,29,29,,,,,,,,,,,,,,,,,,,,,,,,,,,,,,,346.52511089947075,347.53246119990945,347.51572879962623,348.11349289957434,348.11349289957434,None,350.14690049923956,None,left,0.36308460123836994,350.14690049923956,None,350.5353377992287,None,left,0.13484210055321455,350.5353377992287,None,test,001,2022-06-16_14h58.38.975,ABstudy,2022.1.4,59.96674251249133,
AB,Lag1_T1P_T2P,1,P,P,7,8,6,3,11,swing,Did you see the swing?,0.2,0.016,JPG\,sewingmachine01a,thermometer02b,sponge01,eraser,broccoli01a,fork03c,swing,blender,belt02a,medal02b,pineapple01a,blankImage,blankImage,blankImage,blankImage,blankImage,blankImage,swing,,,,,0,30,30,30,,,,,,,,,,,,,,,,,,,,,,,,,,,,,,,350.70684389956295,351.71983959991485,351.70306849945337,352.2877872996032,352.2877872996032,None,354.53789519984275,None,left,0.3959953002631664,354.53789519984275,None,354.9562101997435,None,left,0.15343300066888332,354.9562101997435,None,test,001,2022-06-16_14h58.38.975,ABstudy,2022.1.4,59.96674251249133,
AB,Lag1_T1P_T2P,1,P,P,6,7,5,3,10,elephant,Did you see the elephant?,0.2,0.016,JPG\,clock01a,grape01,plate01b,key01,screwdriver04b,africanelephant,blender,iron01b,toothbrush03b,comb02a,blankImage,blankImage,blankImage,blankImage,blankImage,blankImage,blankImage,africanelephant,,,,,0,31,31,31,,,,,,,,,,,,,,,,,,,,,,,,,,,,,,,355.14230879954994,356.15759279951453,356.12429039925337,356.714866399765,356.714866399765,None,358.7757433997467,None,left,0.35832760110497475,358.7757433997467,None,359.1612523999065,None,left,0.14072350040078163,359.1612523999065,None,test,001,2022-06-16_14h58.38.975,ABstudy,2022.1.4,59.96674251249133,
AB,Lag1_T1P_T2P,1,P,P,8,9,7,3,12,apron,Did you see the apron?,0.2,0.016,JPG\,avocado01,stapler03a,match,cauliflower01,paintbrush01,clock01a,coffeemaker,apron,blender,cellphone,watch02a,pear01,blankImage,blankImage,blankImage,blankImage,blankImage,apron,,,,,0,32,32,32,,,,,,,,,,,,,,,,,,,,,,,,,,,,,,,359.3280982999131,360.32813599985093,360.3114854991436,360.89210529997945,360.89210529997945,None,363.3611271996051,None,left,0.36507970094680786,363.3611271996051,None,363.7500245999545,None,left,0.14516400080174208,363.7500245999545,None,test,001,2022-06-16_14h58.38.975,ABstudy,2022.1.4,59.96674251249133,
AB,Lag1_T1P_T2P,1,P,P,5,6,4,5,11,owl,Did you see the owl?,0.2,0.016,JPG\,cellphone,tomato01,comb02a,candy,barnowl,blender,toaster01,fan,feather03a,pen04b,lemon02,blankImage,blankImage,blankImage,blankImage,blankImage,blankImage,barnowl,,,,,0,33,33,33,,,,,,,,,,,,,,,,,,,,,,,,,,,,,,,363.9264654992148,364.9330948991701,364.9163043992594,365.5031232992187,365.5031232992187,None,367.697844799608,None,left,0.4915522001683712,367.697844799608,None,368.21908589918166,None,left,0.1788334008306265,368.21908589918166,None,test,001,2022-06-16_14h58.38.975,ABstudy,2022.1.4,59.96674251249133,
AB,Lag1_T1P_T2P,1,P,P,5,6,4,5,11,Basketball,Did you see the Basketball?,0.2,0.016,JPG\,pencil01,microscope,banana01,computerkeyboard02,basketball01,blender,scissors01,sock01a,book01b,onion,dice05a,blankImage,blankImage,blankImage,blankImage,blankImage,blankImage,basketball01,,,,,0,34,34,34,,,,,,,,,,,,,,,,,,,,,,,,,,,,,,,368.426887399517,369.43727249931544,369.4206532994285,369.9911457998678,369.9911457998678,None,372.232754599303,None,left,0.47681340109556913,372.232754599303,None,372.74094249960035,None,left,0.12052140012383461,372.74094249960035,None,test,001,2022-06-16_14h58.38.975,ABstudy,2022.1.4,59.96674251249133,
AB,Lag1_T1P_T2P,1,P,P,6,7,5,5,12,bat,Did you see the bat?,0.2,0.016,JPG\,comb02a,key01,medal02b,battery02b,lighter01,bat,blender,sandal,coffeemaker,cellphone,computerkeyboard02,calculator01,blankImage,blankImage,blankImage,blankImage,blankImage,bat,,,,,0,35,35,35,,,,,,,,,,,,,,,,,,,,,,,,,,,,,,,372.89509569946676,373.9088465999812,373.8921666992828,374.4755270993337,374.4755270993337,None,376.88082829955965,None,left,0.3817130010575056,376.88082829955965,None,377.2954020993784,None,left,0.14261330105364323,377.2954020993784,None,test,001,2022-06-16_14h58.38.975,ABstudy,2022.1.4,59.96674251249133,
AB,Lag1_T1P_T2P,1,P,P,7,8,6,3,11,cloud,Did you see the cloud?,0.2,0.016,JPG\,lighter01,hammer01,spoon01,chain01,cymbal,sponge01,cloud,blender,coffeemaker,watermelon01,cauliflower01,blankImage,blankImage,blankImage,blankImage,blankImage,blankImage,cloud,,,,,0,36,36,36,,,,,,,,,,,,,,,,,,,,,,,,,,,,,,,377.4660416999832,378.4798101000488,378.46312399953604,379.0380988996476,379.0380988996476,None,381.3344420995563,None,left,0.2967424001544714,381.3344420995563,None,381.64979110006243,None,left,0.16445100121200085,381.64979110006243,None,test,001,2022-06-16_14h58.38.975,ABstudy,2022.1.4,59.96674251249133,
AB,Lag1_T1P_T2P,1,P,P,8,9,7,4,13,crab,Did you see the crab?,0.2,0.016,JPG\,candle01,fork03c,plate01b,violin,computerkeyboard02,candy,calculator01,crab01,blender,sock01a,teabag,banana01,cd,blankImage,blankImage,blankImage,blankImage,crab01,,,,,0,37,37,37,,,,,,,,,,,,,,,,,,,,,,,,,,,,,,,381.8367142993957,382.85100999940187,382.81755939964205,383.4025673996657,383.4025673996657,None,386.0243890993297,None,left,0.4132224004715681,386.0243890993297,None,386.45431869942695,None,left,0.14355140086263418,386.45431869942695,None,test,001,2022-06-16_14h58.38.975,ABstudy,2022.1.4,59.96674251249133,
AB,Lag1_T1P_T2P,1,P,P,6,7,5,3,10,cupcake,Did you see the cupcake?,0.2,0.016,JPG\,printer02,leaf02a,cauliflower01,sock01a,brownsugar,cupcake,blender,orange,belt02a,shirt02,blankImage,blankImage,blankImage,blankImage,blankImage,blankImage,blankImage,cupcake,,,,,0,38,38,38,,,,,,,,,,,,,,,,,,,,,,,,,,,,,,,386.6732868999243,387.6725773997605,387.6725773997605,388.2823305996135,388.2823305996135,None,390.20119899977,None,left,0.40494170133024454,390.20119899977,None,390.62530279997736,None,left,0.24504300113767385,390.62530279997736,None,test,001,2022-06-16_14h58.38.975,ABstudy,2022.1.4,59.96674251249133,
AB,Lag1_T1P_T2P,1,P,P,8,9,7,4,13,Doughnut,Did you see the Doughnut?,0.2,0.016,JPG\,brick,eraser,cucumber,ashtray01,thermometer02b,binoculars01b,lipstick02a,donut,blender,brownsugar,battery02b,iron01b,dice05a,blankImage,blankImage,blankImage,blankImage,donut,,,,,0,39,39,39,,,,,,,,,,,,,,,,,,,,,,,,,,,,,,,390.89727819990367,391.90999849978834,391.8933119997382,392.484712199308,392.484712199308,None,395.1227276995778,None,left,0.562831200659275,395.1227276995778,None,395.71389079932123,None,left,0.1955436011776328,395.71389079932123,None,test,001,2022-06-16_14h58.38.975,ABstudy,2022.1.4,59.96674251249133,
AB,Lag1_T1P_T2P,1,P,P,8,9,7,3,12,Eiffel tower,Did you see the Eiffel tower?,0.2,0.016,JPG\,celery,tennisball01b,calculator01,pear01,screw02,orange,button01,eiffeltower,blender,apple07,iron01b,brownsugar,blankImage,blankImage,blankImage,blankImage,blankImage,eiffeltower,,,,,0,40,40,40,,,,,,,,,,,,,,,,,,,,,,,,,,,,,,,395.94211319927126,396.94843210000545,396.9318023994565,397.5158689999953,397.5158689999953,None,399.85118460003287,None,left,0.3950675008818507,399.85118460003287,None,400.26847939938307,None,left,0.13761880155652761,400.26847939938307,None,test,001,2022-06-16_14h58.38.975,ABstudy,2022.1.4,59.96674251249133,
AB,Lag1_T1P_T2P,1,P,P,6,7,5,5,12,exit sign,Did you see the exit sign?,0.2,0.016,JPG\,printer02,envelope03a,potato02b,calculator01,tableknife02,exitsign,blender,coffeemaker,broom01,greenolive,candle08b,battery02b,blankImage,blankImage,blankImage,blankImage,blankImage,exitsign,,,,,0,41,41,41,,,,,,,,,,,,,,,,,,,,,,,,,,,,,,,400.4440217996016,401.4533534999937,401.43671419937164,402.0159144997597,402.0159144997597,None,404.40520609915257,None,left,0.4019246008247137,404.40520609915257,None,404.8393377996981,None,left,0.14278880041092634,404.8393377996981,None,test,001,2022-06-16_14h58.38.975,ABstudy,2022.1.4,59.96674251249133,
AB,Lag1_T1P_T2P,1,P,P,6,7,5,3,10,fortune cookie,Did you see the fortune cookie?,0.2,0.016,JPG\,scissors01,grape01,mushroom01,toiletpaper01a,greenolive,fortunecookie,blender,ashtray01,carrot01,pineapple01a,blankImage,blankImage,blankImage,blankImage,blankImage,blankImage,blankImage,fortunecookie,,,,,0,42,42,42,,,,,,,,,,,,,,,,,,,,,,,,,,,,,,,405.009684599936,406.0240333992988,406.0074255997315,406.6387626994401,406.56664219964296,None,408.68203399982303,None,left,0.33224060107022524,408.68203399982303,None,409.04381309915334,None,left,0.15442320052534342,409.04381309915334,None,test,001,2022-06-16_14h58.38.975,ABstudy,2022.1.4,59.96674251249133,
AB,Lag1_T1P_T2P,1,P,P,7,8,6,3,11,harmonica,Did you see the harmonica?,0.2,0.016,JPG\,cucumber,ring01,lipstick02a,microscope,violin,garlic01a,harmonica,blender,cherry01,sewingmachine01a,belt02a,blankImage,blankImage,blankImage,blankImage,blankImage,blankImage,harmonica,,,,,0,43,43,43,,,,,,,,,,,,,,,,,,,,,,,,,,,,,,,409.2290384992957,410.228380699642,410.2116190996021,410.7941004000604,410.7941004000604,None,413.0325077995658,None,left,0.4373362008482218,413.0325077995658,None,413.49830189999193,None,left,0.14740650076419115,413.49830189999193,None,test,001,2022-06-16_14h58.38.975,ABstudy,2022.1.4,59.96674251249133,
AB,Lag1_T1P_T2P,1,P,P,7,8,6,4,12,Dog House,Did you see the Dog House?,0.2,0.016,JPG\,pineapple01a,leaf02a,grape01,toiletpaper01a,match,tennisball01b,doghouse,blender,coffeemaker,measuringcup01,ring01,lemon02,blankImage,blankImage,blankImage,blankImage,blankImage,doghouse,,,,,0,44,44,44,,,,,,,,,,,,,,,,,,,,,,,,,,,,,,,413.7167254993692,414.71616029925644,414.71616029925644,415.34763689991087,415.34763689991087,None,417.6587919993326,None,left,0.33130060136318207,417.6587919993326,None,418.01947049982846,None,left,0.15444440115243196,418.01947049982846,None,test,001,2022-06-16_14h58.38.975,ABstudy,2022.1.4,59.96674251249133,
AB,Lag1_T1P_T2P,1,P,P,8,9,7,4,13,ladder,Did you see the ladder?,0.2,0.016,JPG\,cigarette,fork03c,greenolive,broccoli01a,avocado01,tennisball01b,balloon01b,ladder,blender,fan,clock01a,strawberry,envelope03a,blankImage,blankImage,blankImage,blankImage,ladder,,,,,0,45,45,45,,,,,,,,,,,,,,,,,,,,,,,,,,,,,,,418.2327090995386,419.23705429956317,419.22038249950856,419.7979969996959,419.7979969996959,None,422.4269363991916,None,left,0.5554822012782097,422.4269363991916,None,423.0076022995636,None,left,0.16761450096964836,423.0076022995636,None,test,001,2022-06-16_14h58.38.975,ABstudy,2022.1.4,59.96674251249133,
AB,Lag1_T1P_T2P,1,P,P,8,9,7,5,14,lawn mower,Did you see the lawn mower?,0.2,0.016,JPG\,battery02b,sunglasses04,pear01,tennisball01b,clock01a,speaker04,binoculars01b,lawnmower,blender,pineapple01a,avocado01,grape01,blueberry01,violin,blankImage,blankImage,blankImage,lawnmower,,,,,0,46,46,46,,,,,,,,,,,,,,,,,,,,,,,,,,,,,,,423.21159709990025,424.22546949982643,424.20880749914795,424.80220069922507,424.80220069922507,None,427.6308205993846,None,left,0.3435128005221486,427.6308205993846,None,427.99609479960054,None,left,0.1620431011542678,427.99609479960054,None,test,001,2022-06-16_14h58.38.975,ABstudy,2022.1.4,59.96674251249133,
AB,Lag1_T1P_T2P,1,P,P,6,7,5,4,11,no parking sign,Did you see the no parking sign?,0.2,0.016,JPG\,fork03c,belt02a,grape01,computerkeyboard02,lemon02,noparkingsign,blender,toiletpaper01a,toaster01,lipstick02a,book01b,blankImage,blankImage,blankImage,blankImage,blankImage,blankImage,noparkingsign,,,,,0,47,47,47,,,,,,,,,,,,,,,,,,,,,,,,,,,,,,,428.1823125993833,429.1972738998011,429.1638870993629,429.7530413996428,429.7530413996428,None,431.95682839956135,None,left,0.43294280022382736,431.95682839956135,None,432.4172069998458,None,left,0.15738230105489492,432.4172069998458,None,test,001,2022-06-16_14h58.38.975,ABstudy,2022.1.4,59.96674251249133,
AB,Lag1_T1P_T2P,1,P,P,7,8,6,4,12,skunk,Did you see the skunk?,0.2,0.016,JPG\,fan,tomato01,candy,screwdriver04b,alligator,cd,skunk,blender,button01,plate01b,brownsugar,lighter01,blankImage,blankImage,blankImage,blankImage,blankImage,skunk,,,,,0,48,48,48,,,,,,,,,,,,,,,,,,,,,,,,,,,,,,,432.6051992997527,433.61830839980394,433.6016085995361,434.19177809916437,434.19177809916437,None,436.6106537999585,None,left,0.3804802009835839,436.6106537999585,None,437.021771799773,None,left,0.1362173007801175,437.021771799773,None,test,001,2022-06-16_14h58.38.975,ABstudy,2022.1.4,59.96674251249133,
AB,Lag1_T1P_T2P,1,P,P,6,7,5,5,12,Snowboard,Did you see the Snowboard?,0.2,0.016,JPG\,belt02a,measuringcup01,spoon01,chain01,greenolive,snowboard,blender,onion,fan,strawberry,candle01,broom01,blankImage,blankImage,blankImage,blankImage,blankImage,snowboard,,,,,0,49,49,49,,,,,,,,,,,,,,,,,,,,,,,,,,,,,,,437.1926561994478,438.2061508996412,438.1727558998391,438.75524610001594,438.75524610001594,None,441.2588819991797,None,left,0.4842225005850196,441.2588819991797,None,441.7596932994202,None,left,0.16641330067068338,441.7596932994202,None,test,001,2022-06-16_14h58.38.975,ABstudy,2022.1.4,59.96674251249133,
AB,Lag1_T1P_T2P,1,P,P,7,8,6,5,13,tiger,Did you see the tiger?,0.2,0.016,JPG\,globe,broccoli01a,binoculars01b,iron01b,avocado01,dandelion,tiger02,blender,fan,pizza,celery,blueberry01,sewingmachine01a,blankImage,blankImage,blankImage,blankImage,tiger02,,,,,0,50,50,50,,,,,,,,,,,,,,,,,,,,,,,,,,,,,,,441.94546670001,442.96087509952486,442.927507000044,443.53213860001415,443.53213860001415,None,446.17707609944046,None,left,0.37352830078452826,446.17707609944046,None,446.5814918996766,None,left,0.1450185002759099,446.5814918996766,None,test,001,2022-06-16_14h58.38.975,ABstudy,2022.1.4,59.96674251249133,
AB,Lag1_T1P_T2P,1,P,P,7,8,6,3,11,tree,Did you see the tree?,0.2,0.016,JPG\,pear01,clock01a,cymbal,match,ashtray01,globe,tree,blender,lemon02,pen04b,dice05a,blankImage,blankImage,blankImage,blankImage,blankImage,blankImage,tree,,,,,0,51,51,51,,,,,,,,,,,,,,,,,,,,,,,,,,,,,,,446.7974304994568,447.7991904998198,447.7825891999528,448.36553099937737,448.36553099937737,None,450.5839320998639,None,left,0.40636790078133345,450.5839320998639,None,451.01915489975363,None,left,0.1389847006648779,451.01915489975363,None,test,001,2022-06-16_14h58.38.975,ABstudy,2022.1.4,59.96674251249133,
AB,Lag1_T1P_T2P,1,P,P,8,9,7,5,14,Waterfall,Did you see the Waterfall?,0.2,0.016,JPG\,pizza,watch02a,greenolive,cucumber,match,violin,scissors01,waterfall,blender,cherry01,ring01,cigarette,microscope,cellphone,blankImage,blankImage,blankImage,waterfall,,,,,0,52,52,52,,,,,,,,,,,,,,,,,,,,,,,,,,,,,,,451.18765239976346,452.18669759947807,452.1700231991708,452.7560236994177,452.7560236994177,None,455.6102617997676,None,left,0.30801060050725937,455.6102617997676,None,455.9405022999272,None,left,0.17757240030914545,455.9405022999272,None,test,001,2022-06-16_14h58.38.975,ABstudy,2022.1.4,59.96674251249133,
AB,Lag1_T1P_T2P,1,P,P,6,7,5,4,11,Bow,Did you see the Bow?,0.2,0.016,JPG\,broom01,plate01b,scissors01,garlic01a,paintbrush01,bow,blender,shirt02,speaker04,celery,sandal,blankImage,blankImage,blankImage,blankImage,blankImage,blankImage,bow,,,,,0,53,53,53,,,,,,,,,,,,,,,,,,,,,,,,,,,,,,,456.1456736000255,457.15845989994705,457.12577379960567,457.7029234999791,457.7029234999791,None,459.96084709931165,None,left,0.4294628007337451,459.96084709931165,None,460.411903899163,None,left,0.16227820049971342,460.411903899163,None,test,001,2022-06-16_14h58.38.975,ABstudy,2022.1.4,59.96674251249133,
AB,Lag1_T1P_T2P,1,P,P,5,6,4,3,9,elephant,Did you see the elephant?,0.2,0.016,JPG\,celery,brownsugar,key01,sunglasses04,arugula,blender,dice05a,tennisball01b,scarf,blankImage,blankImage,blankImage,blankImage,blankImage,blankImage,blankImage,blankImage,arugula,,,,,0,54,54,54,,,,,,,,,,,,,,,,,,,,,,,,,,,,,,,460.60161499958485,461.61302199959755,461.5964929992333,462.1947404993698,462.1947404993698,None,464.06543239951134,None,left,0.47682510036975145,464.06543239951134,None,464.5660748993978,None,left,0.16102190036326647,464.5660748993978,None,test,001,2022-06-16_14h58.38.975,ABstudy,2022.1.4,59.96674251249133,
AB,Lag1_T1P_T2P,1,P,P,5,6,4,5,11,beaver,Did you see the beaver?,0.2,0.016,JPG\,belt02a,sunglasses04,computerkeyboard02,cherry01,beaver,blender,watch02a,dice05a,blueberry01,spoon01,match,blankImage,blankImage,blankImage,blankImage,blankImage,blankImage,beaver,,,,,0,55,55,55,,,,,,,,,,,,,,,,,,,,,,,,,,,,,,,464.7552705993876,465.767636699602,465.75096209999174,466.3511981992051,466.3511981992051,None,468.5092504993081,None,left,0.36078210081905127,468.5092504993081,None,468.88696229923517,None,left,0.18304240051656961,468.88696229923517,None,test,001,2022-06-16_14h58.38.975,ABstudy,2022.1.4,59.96674251249133,
AB,Lag1_T1P_T2P,1,P,P,8,9,7,3,12,snow globe,Did you see the Snow globe?,0.2,0.016,JPG\,eraser,measuringcup01,chain01,birthdaycandle,ring01,rice,stapler03a,blender,blender,celery,microscope,sunglasses04,blankImage,blankImage,blankImage,blankImage,blankImage,snowglobe,,,,,0,56,56,56,,,,,,,,,,,,,,,,,,,,,,,,,,,,,,,469.09418899938464,470.1048999996856,470.08818509988487,470.6752798995003,470.6752798995003,None,473.0744089996442,None,left,0.4352652011439204,473.0744089996442,None,473.5416261991486,None,left,0.15269430074840784,473.5416261991486,None,test,001,2022-06-16_14h58.38.975,ABstudy,2022.1.4,59.96674251249133,
AB,Lag1_T1P_T2P,1,P,P,8,9,7,5,14,bullet,Did you see the bullet?,0.2,0.016,JPG\,measuringcup01,dice05a,greenolive,lipstick02a,feather03a,balloon01b,lighter01,bullet,blender,plate01b,microscope,brick,thermometer02b,screw02,blankImage,blankImage,blankImage,bullet,,,,,0,57,57,57,,,,,,,,,,,,,,,,,,,,,,,,,,,,,,,473.728601699695,474.74285919964314,474.72611069958657,475.315211199224,475.315211199224,None,478.1187934000045,None,left,0.35958800092339516,478.1187934000045,None,478.4964059991762,None,left,0.18983230087906122,478.4964059991762,None,test,001,2022-06-16_14h58.38.975,ABstudy,2022.1.4,59.96674251249133,
AB,Lag1_T1P_T2P,1,P,P,8,9,7,3,12,cactus,Did you see the cactus?,0.2,0.016,JPG\,tennisball01b,paintbrush01,medal02b,apple07,speaker04,iron01b,avocado01,cactus,blender,toiletpaper01a,watermelon01,candle01,blankImage,blankImage,blankImage,blankImage,blankImage,cactus,,,,,0,58,58,58,,,,,,,,,,,,,,,,,,,,,,,,,,,,,,,478.71555850002915,479.7309759994969,479.69764779973775,480.29125239979476,480.29125239979476,None,482.7911727996543,None,left,0.3280297014862299,482.7911727996543,None,483.15226919949055,None,left,0.15768450126051903,483.15226919949055,None,test,001,2022-06-16_14h58.38.975,ABstudy,2022.1.4,59.96674251249133,
AB,Lag1_T1P_T2P,1,P,P,7,8,6,4,12,cow,Did you see the cow?,0.2,0.016,JPG\,fork03c,plate01b,toiletpaper01a,greenolive,rice,blueberry01,cow,blender,envelope03a,orange,book01b,pencil01,blankImage,blankImage,blankImage,blankImage,blankImage,cow,,,,,0,59,59,59,,,,,,,,,,,,,,,,,,,,,,,,,,,,,,,483.3349054995924,484.33579639997333,484.3191198995337,484.90011759940535,484.90011759940535,None,487.3579416992143,None,left,0.44858290161937475,487.3579416992143,None,487.8391408994794,None,left,0.17531420104205608,487.8391408994794,None,test,001,2022-06-16_14h58.38.975,ABstudy,2022.1.4,59.96674251249133,
AB,Lag1_T1P_T2P,1,P,P,7,8,6,5,13,disco ball,Did you see the disco ball?,0.2,0.016,JPG\,candle01,paintbrush01,scissors01,fan,microscope,toothbrush03b,discoball,blender,teabag,pencil01,lemon02,ashtray01,shirt02,blankImage,blankImage,blankImage,blankImage,discoball,,,,,0,60,60,60,,,,,,,,,,,,,,,,,,,,,,,,,,,,,,,488.0949421999976,489.10723209939897,489.0905782999471,489.69894069992006,489.69894069992006,None,492.2689286991954,None,left,0.41729450039565563,492.2689286991954,None,492.71079449914396,None,left,0.8713119011372328,492.71079449914396,None,test,001,2022-06-16_14h58.38.975,ABstudy,2022.1.4,59.96674251249133,
AB,Lag1_T1P_T2P,1,P,P,6,7,5,3,10,drum sticks,Did you see the drum sticks?,0.2,0.016,JPG\,pineapple01a,tennisball01b,computerkeyboard02,feather03a,belt02a,drumstick,blender,blueberry01,medal02b,alligator,blankImage,blankImage,blankImage,blankImage,blankImage,blankImage,blankImage,drumstick,,,,,0,61,61,61,,,,,,,,,,,,,,,,,,,,,,,,,,,,,,,493.6136812996119,494.6293271994218,494.59594199992716,495.1762923998758,495.1762923998758,None,497.114937399514,None,left,0.44325470086187124,497.114937399514,None,497.581987099722,None,left,0.17654230073094368,497.581987099722,None,test,001,2022-06-16_14h58.38.975,ABstudy,2022.1.4,59.96674251249133,
AB,Lag1_T1P_T2P,1,P,P,8,9,7,5,14,finger print,Did you see the finger print?,0.2,0.016,JPG\,chain01,pen04b,birthdaycandle,watermelon01,broom01,scissors01,measuringcup01,fingerprint,blender,calculator01,ashtray01,feather03a,sewingmachine01a,thermometer02b,blankImage,blankImage,blankImage,fingerprint,,,,,0,62,62,62,,,,,,,,,,,,,,,,,,,,,,,,,,,,,,,497.7861988991499,498.800659599714,498.784063199535,499.3731504995376,499.3731504995376,None,502.21004689950496,None,left,0.41198320034891367,502.21004689950496,None,502.65392729919404,None,left,0.13598930090665817,502.65392729919404,None,test,001,2022-06-16_14h58.38.975,ABstudy,2022.1.4,59.96674251249133,
AB,Lag1_T1P_T2P,1,P,P,5,6,4,3,9,hockey stick,Did you see the hockey stick?,0.2,0.016,JPG\,violin,pizza,toothbrush03b,pineapple01a,hockeystick,blender,candy,dandelion,clock04,blankImage,blankImage,blankImage,blankImage,blankImage,blankImage,blankImage,blankImage,hockeystick,,,,,0,63,63,63,,,,,,,,,,,,,,,,,,,,,,,,,,,,,,,502.82318089995533,503.8384593995288,503.80506089981645,504.38732119929045,504.38732119929045,None,506.25737569946796,None,left,0.4458397012203932,506.25737569946796,None,506.7249991996214,None,left,0.1613154001533985,506.7249991996214,None,test,001,2022-06-16_14h58.38.975,ABstudy,2022.1.4,59.96674251249133,
AB,Lag1_T1P_T2P,1,P,P,8,9,7,4,13,Hula hoop,Did you see the Hula hoop?,0.2,0.016,JPG\,brownsugar,candle01,match,printer02,broom01,balloon01b,belt02a,hulahoop,blender,feather03a,rice,mushroom01,pencil01,blankImage,blankImage,blankImage,blankImage,hulahoop,,,,,0,64,64,64,,,,,,,,,,,,,,,,,,,,,,,,,,,,,,,506.91639329958707,507.92604979965836,507.9093538997695,508.4097614996135,508.4097614996135,None,511.1567145995796,None,left,0.4253956004977226,511.1567145995796,None,511.61305469926447,None,left,0.16105980053544044,511.61305469926447,None,test,001,2022-06-16_14h58.38.975,ABstudy,2022.1.4,59.96674251249133,
AB,Lag1_T1P_T2P,1,P,P,5,6,4,4,10,Ladybug,Did you see the Ladybug?,0.2,0.016,JPG\,key01,apple07,ring01,leaf02a,ladybug03,blender,violin,sponge01,baseball01a,thermometer02b,blankImage,blankImage,blankImage,blankImage,blankImage,blankImage,blankImage,ladybug03,,,,,0,65,65,65,,,,,,,,,,,,,,,,,,,,,,,,,,,,,,,511.80292799975723,512.8143036998808,512.7974861999974,513.3642150992528,513.3642150992528,None,515.4224687991664,None,left,0.3440845003351569,515.4224687991664,None,515.7839298993349,None,left,0.17451580055058002,515.7839298993349,None,test,001,2022-06-16_14h58.38.975,ABstudy,2022.1.4,59.96674251249133,
AB,Lag1_T1P_T2P,1,P,P,7,8,6,3,11,compass,Did you see the compass?,0.2,0.016,JPG\,brick,plate01b,pen04b,toaster01,screwdriver04b,candle01,magneticcompass,blender,coffeemaker,ring01,orange,blankImage,blankImage,blankImage,blankImage,blankImage,blankImage,magneticcompass,,,,,0,66,66,66,,,,,,,,,,,,,,,,,,,,,,,,,,,,,,,516.030899499543,517.0349932992831,517.0182842994109,517.602960200049,517.602960200049,None,519.7629472995177,None,left,0.4266504002735019,519.7629472995177,None,520.2065228996798,None,left,0.1834137011319399,520.2065228996798,None,test,001,2022-06-16_14h58.38.975,ABstudy,2022.1.4,59.96674251249133,
AB,Lag1_T1P_T2P,1,P,P,7,8,6,3,11,Moose,Did you see the Moose?,0.2,0.016,JPG\,sock01a,spoon01,alligator,comb02a,printer02,medal02b,moose,blender,greenolive,computerkeyboard02,cauliflower01,blankImage,blankImage,blankImage,blankImage,blankImage,blankImage,moose,,,,,0,67,67,67,,,,,,,,,,,,,,,,,,,,,,,,,,,,,,,520.4267376996577,521.4394892994314,521.422773799859,522.0016209995374,522.0016209995374,None,524.2791283000261,None,left,0.3916033999994397,524.2791283000261,None,524.6925969999284,None,left,0.16199850104749203,524.6925969999284,None,test,001,2022-06-16_14h58.38.975,ABstudy,2022.1.4,59.96674251249133,
AB,Lag1_T1P_T2P,1,P,P,8,9,7,4,13,peacock,Did you see the peacock?,0.2,0.016,JPG\,hammer01,sponge01,toaster01,cherry01,feather03a,mushroom01,measuringcup01,peacock,blender,brick,clock04,medal02b,teabag,blankImage,blankImage,blankImage,blankImage,peacock,,,,,0,68,68,68,,,,,,,,,,,,,,,,,,,,,,,,,,,,,,,524.8785402998328,525.8939266996458,525.8606330994517,526.4404167998582,526.4404167998582,None,529.0588602991775,None,left,0.33883920032531023,529.0588602991775,None,529.4142189994454,None,left,0.19135660026222467,529.4142189994454,None,test,001,2022-06-16_14h58.38.975,ABstudy,2022.1.4,59.96674251249133,
AB,Lag1_T1P_T2P,1,P,P,7,8,6,4,12,rooster,Did you see the rooster?,0.2,0.016,JPG\,pizza,strawberry,potato02b,speaker04,battery02b,iron01b,rooster,blender,globe,banana01,medal02b,baseball01a,blankImage,blankImage,blankImage,blankImage,blankImage,rooster,,,,,0,69,69,69,,,,,,,,,,,,,,,,,,,,,,,,,,,,,,,529.6352341994643,530.6488080993295,530.6320391995832,531.2183138998225,531.2183138998225,None,533.7358393995091,None,left,0.3828624002635479,533.7358393995091,None,534.1359382998198,None,left,0.19051010068506002,534.1359382998198,None,test,001,2022-06-16_14h58.38.975,ABstudy,2022.1.4,59.96674251249133,
AB,Lag1_T1P_T2P,1,P,P,7,8,6,3,11,Sand castle,Did you see the Sand castle?,0.2,0.016,JPG\,thermometer02b,candle08b,comb02a,toothbrush03b,brick,computerkeyboard02,sandcastle,blender,candy,birthdaycandle,clock04,blankImage,blankImage,blankImage,blankImage,blankImage,blankImage,sandcastle,,,,,0,70,70,70,,,,,,,,,,,,,,,,,,,,,,,,,,,,,,,534.3518450995907,535.353513399139,535.3368500992656,535.9272527992725,535.9272527992725,None,538.1778702996671,None,left,0.42869000043720007,538.1778702996671,None,538.6234351992607,None,left,0.17418650072067976,538.6234351992607,None,test,001,2022-06-16_14h58.38.975,ABstudy,2022.1.4,59.96674251249133,
AB,Lag1_T1P_T2P,1,P,P,8,9,7,3,12,Sheep,Did you see the Sheep?,0.2,0.016,JPG\,celery,orange,scissors01,balloon01b,avocado01,printer02,mushroom01,sheep,blender,dice05a,ashtray01,fan,blankImage,blankImage,blankImage,blankImage,blankImage,sheep,,,,,0,71,71,71,,,,,,,,,,,,,,,,,,,,,,,,,,,,,,,538.8280925992876,539.8412790000439,539.8247088994831,540.4109343998134,540.4109343998134,None,542.8483870998025,None,left,0.42134840041399,542.8483870998025,None,543.2941033998504,None,left,0.1531379008665681,543.2941033998504,None,test,001,2022-06-16_14h58.38.975,ABstudy,2022.1.4,59.96674251249133,
AB,Lag1_T1P_T2P,1,P,P,6,7,5,3,10,spider web,Did you see the spider web?,0.2,0.016,JPG\,toaster01,chain01,sponge01,baseball01a,carrot01,spiderweb,blender,iron01b,grape01,brick,blankImage,blankImage,blankImage,blankImage,blankImage,blankImage,blankImage,spiderweb,,,,,0,72,72,72,,,,,,,,,,,,,,,,,,,,,,,,,,,,,,,543.5252547999844,544.5293525997549,544.5126727996394,545.1175091993064,545.1175091993064,None,547.0999034000561,None,left,0.3620056016370654,547.0999034000561,None,547.4820144996047,None,left,0.14777320064604282,547.4820144996047,None,test,001,2022-06-16_14h58.38.975,ABstudy,2022.1.4,59.96674251249133,
AB,Lag1_T1P_T2P,1,P,P,7,8,6,3,11,trampoline,Did you see the trampoline?,0.2,0.016,JPG\,dice05a,watch02a,coffeemaker,lighter01,button01,strawberry,trampoline,blender,plate01b,pen04b,feather03a,blankImage,blankImage,blankImage,blankImage,blankImage,blankImage,trampoline,,,,,0,73,73,73,,,,,,,,,,,,,,,,,,,,,,,,,,,,,,,547.6514968993142,548.6665383996442,548.6331218993291,549.2412649998441,549.2412649998441,None,551.4340293994173,None,left,0.3564515011385083,551.4340293994173,None,551.8199467994273,None,left,0.1464595003053546,551.8199467994273,None,test,001,2022-06-16_14h58.38.975,ABstudy,2022.1.4,59.96674251249133,
AB,Lag1_T1P_T2P,1,P,P,7,8,6,4,12,trophy,Did you see the trophy?,0.2,0.016,JPG\,cherry01,cymbal,envelope03a,foosballtable,shirt02,cellphone,trophy01,blender,battery02b,apple07,pencil01,screwdriver04b,blankImage,blankImage,blankImage,blankImage,blankImage,trophy01,,,,,0,74,74,74,,,,,,,,,,,,,,,,,,,,,,,,,,,,,,,551.9928016997874,553.0044540995732,552.9878308000043,553.5702253999189,553.5702253999189,None,556.0169998994097,None,left,0.3729596007615328,556.0169998994097,None,556.4079753998667,None,left,0.17489160131663084,556.4079753998667,None,test,001,2022-06-16_14h58.38.975,ABstudy,2022.1.4,59.96674251249133,
AB,Lag1_T1P_T2P,1,P,P,6,7,5,3,10,windmill,Did you see the windmill?,0.2,0.016,JPG\,pizza,printer02,medal02b,spoon01,grape01,windmill,blender,watermelon01,celery,battery02b,blankImage,blankImage,blankImage,blankImage,blankImage,blankImage,blankImage,windmill,,,,,0,75,75,75,,,,,,,,,,,,,,,,,,,,,,,,,,,,,,,556.615836199373,557.6257216995582,557.6090338993818,558.1881975997239,558.1881975997239,None,560.2072672992945,None,left,0.5029047010466456,560.2072672992945,None,560.7289253994823,None,left,0.17312400043010712,560.7289253994823,None,test,001,2022-06-16_14h58.38.975,ABstudy,2022.1.4,59.96674251249133,
AB,Lag1_T1P_T2P,1,P,P,7,8,6,5,13,arrow,Did you see the arrow?,0.2,0.016,JPG\,pencil01,broccoli01a,button01,sponge01,watermelon01,lipstick02a,arrow02,blender,lighter01,sock01a,spoon01,blueberry01,belt02a,blankImage,blankImage,blankImage,blankImage,arrow02,,,,,0,76,76,76,,,,,,,,,,,,,,,,,,,,,,,,,,,,,,,560.9343242999166,561.9466512994841,561.9300154000521,562.4911897992715,562.4911897992715,None,565.1491519995034,None,left,0.44924910087138414,565.1491519995034,None,565.6170969996601,None,left,0.14928120095282793,565.6170969996601,None,test,001,2022-06-16_14h58.38.975,ABstudy,2022.1.4,59.96674251249133,
AB,Lag1_T1P_T2P,1,P,P,8,9,7,4,13,Bird House,Did you see the Bird House?,0.2,0.016,JPG\,toiletpaper01a,mushroom01,medal02b,sandal,rice,cd,feather03a,birdhouse,blender,garlic01a,toaster01,belt02a,cigarette,blankImage,blankImage,blankImage,blankImage,birdhouse,,,,,0,77,77,77,,,,,,,,,,,,,,,,,,,,,,,,,,,,,,,565.790687199682,566.8015678999946,566.7849089000374,567.3653388991952,567.3653388991952,None,569.9789947997779,None,left,0.394811000674963,569.9789947997779,None,570.405161999166,None,left,0.168881400488317,570.405161999166,None,test,001,2022-06-16_14h58.38.975,ABstudy,2022.1.4,59.96674251249133,
AB,Lag1_T1P_T2P,1,P,P,8,9,7,3,12,bridge,Did you see the bridge?,0.2,0.016,JPG\,speaker04,sewingmachine01a,eraser,violin,globe,belt02a,sunglasses04,bridge,blender,greenolive,alligator,pear01,blankImage,blankImage,blankImage,blankImage,blankImage,bridge,,,,,0,78,78,78,,,,,,,,,,,,,,,,,,,,,,,,,,,,,,,570.6717913998291,571.6730750994757,571.6564261997119,572.24757209979,572.24757209979,None,574.6152730993927,None,left,0.32656400091946125,574.6152730993927,None,574.9612730992958,None,left,0.17243230063468218,574.9612730992958,None,test,001,2022-06-16_14h58.38.975,ABstudy,2022.1.4,59.96674251249133,
AB,Lag1_T1P_T2P,1,P,P,6,7,5,4,11,cash register,Did you see the cash register?,0.2,0.016,JPG\,leaf02a,apple07,cd,pineapple01a,envelope03a,cashregister01,blender,stapler03a,rice,feather03a,lemon02,blankImage,blankImage,blankImage,blankImage,blankImage,blankImage,cashregister01,,,,,0,79,79,79,,,,,,,,,,,,,,,,,,,,,,,,,,,,,,,575.1681964993477,576.1781262997538,576.1613905997947,576.7453058995306,576.7453058995306,None,578.943845199421,None,left,0.5581964012235403,578.943845199421,None,579.5310158999637,None,left,0.14701830130070448,579.5310158999637,None,test,001,2022-06-16_14h58.38.975,ABstudy,2022.1.4,59.96674251249133,
AB,Lag1_T1P_T2P,1,P,P,8,9,7,4,13,dart board,Did you see the dart board?,0.2,0.016,JPG\,rice,watermelon01,tableknife02,scarf,computerkeyboard02,cauliflower01,battery02b,dartboard,blender,sandal,sponge01,microscope,tomato01,blankImage,blankImage,blankImage,blankImage,dartboard,,,,,0,80,80,80,,,,,,,,,,,,,,,,,,,,,,,,,,,,,,,579.7029641997069,580.7155622998253,580.6988470992073,581.2855445994064,581.2855445994064,None,583.9422367997468,None,left,0.5361121008172631,583.9422367997468,None,584.5037068994716,None,left,0.16739870142191648,584.5037068994716,None,test,001,2022-06-16_14h58.38.975,ABstudy,2022.1.4,59.96674251249133,
AB,Lag1_T1P_T2P,1,P,P,7,8,6,5,13,dream catcher,Did you see the dream catcher?,0.2,0.016,JPG\,clock01a,cellphone,toaster01,toothbrush03b,cauliflower01,microscope,dreamcatcher,blender,scarf,clock04,sponge01,iron01b,watch02a,blankImage,blankImage,blankImage,blankImage,dreamcatcher,,,,,0,81,81,81,,,,,,,,,,,,,,,,,,,,,,,,,,,,,,,584.7098646992818,585.7202473999932,585.7035595998168,586.2894311994314,586.2894311994314,None,588.9842663994059,None,left,0.33365900069475174,588.9842663994059,None,589.341853399761,None,left,0.16029430087655783,589.341853399761,None,test,001,2022-06-16_14h58.38.975,ABstudy,2022.1.4,59.96674251249133,
AB,Lag1_T1P_T2P,1,P,P,5,6,4,3,9,Escalator,Did you see the Escalator?,0.2,0.016,JPG\,celery,pencil01,fan,foosballtable,escalator,blender,potato02b,fork03c,button01,blankImage,blankImage,blankImage,blankImage,blankImage,blankImage,blankImage,blankImage,escalator,,,,,0,82,82,82,,,,,,,,,,,,,,,,,,,,,,,,,,,,,,,589.5276737995446,590.5418044999242,590.5251468997449,591.1656098999083,591.0923412991688,None,592.9846721999347,None,left,0.33379900082945824,592.9846721999347,None,593.3461178997532,None,left,0.1878852006047964,593.3461178997532,None,test,001,2022-06-16_14h58.38.975,ABstudy,2022.1.4,59.96674251249133,
AB,Lag1_T1P_T2P,1,P,P,8,9,7,3,12,Fire hydrant,Did you see the Fire hydrant?,0.2,0.016,JPG\,foosballtable,candy,envelope03a,microscope,pencil01,leaf02a,scissors01,firehydrant,blender,dandelion,pineapple01a,hammer01,blankImage,blankImage,blankImage,blankImage,blankImage,firehydrant,,,,,0,83,83,83,,,,,,,,,,,,,,,,,,,,,,,,,,,,,,,593.5833150995895,594.5960347997025,594.5625454997644,595.0631164992228,595.0631164992228,None,597.5604149997234,None,left,0.31843450106680393,597.5604149997234,None,597.89947119914,None,left,0.17022040020674467,597.89947119914,None,test,001,2022-06-16_14h58.38.975,ABstudy,2022.1.4,59.96674251249133,
AB,Lag1_T1P_T2P,1,P,P,5,6,4,5,11,shark,Did you see the shark?,0.2,0.016,JPG\,cucumber,sponge01,alligator,pear01,greatwhiteshark,blender,clock04,battery02b,fork03c,binoculars01b,mushroom01,blankImage,blankImage,blankImage,blankImage,blankImage,blankImage,greatwhiteshark,,,,,0,84,84,84,,,,,,,,,,,,,,,,,,,,,,,,,,,,,,,598.1042740996927,599.1172660999,599.100586399436,599.684854099527,599.684854099527,None,601.9402048997581,None,left,0.5386214004829526,601.9402048997581,None,602.5040611997247,None,left,0.17462990060448647,602.5040611997247,None,test,001,2022-06-16_14h58.38.975,ABstudy,2022.1.4,59.96674251249133,
AB,Lag1_T1P_T2P,1,P,P,8,9,7,5,14,helicopter,Did you see the helicopter?,0.2,0.016,JPG\,broom01,globe,cellphone,tableknife02,cauliflower01,scissors01,ring01,helicopter,blender,toaster01,cigarette,grape01,microscope,cucumber,blankImage,blankImage,blankImage,helicopter,,,,,0,85,85,85,,,,,,,,,,,,,,,,,,,,,,,,,,,,,,,602.7596481991932,603.7723638992757,603.7557681994513,604.3463091999292,604.3463091999292,None,607.1116673992947,None,left,0.33466580137610435,607.1116673992947,None,607.4754283996299,None,left,0.16299960017204285,607.4754283996299,None,test,001,2022-06-16_14h58.38.975,ABstudy,2022.1.4,59.96674251249133,
AB,Lag1_T1P_T2P,1,P,P,5,6,4,4,10,No smoking sign,Did you see the No smoking sign?,0.2,0.016,JPG\,leaf02a,pear01,measuringcup01,cigarette,nosmokingsign,blender,teabag,tableknife02,ring01,pencil01,blankImage,blankImage,blankImage,blankImage,blankImage,blankImage,blankImage,nosmokingsign,,,,,0,86,86,86,,,,,,,,,,,,,,,,,,,,,,,,,,,,,,,607.7197749996558,608.7268823999912,608.7101848991588,609.2931483993307,609.2931483993307,None,611.2390727996826,None,left,0.36685760132968426,611.2390727996826,None,611.6295579997823,None,left,0.13618150167167187,611.6295579997823,None,test,001,2022-06-16_14h58.38.975,ABstudy,2022.1.4,59.96674251249133,
