TrialType,CondType,Lag,T1_PA,T2_PA,T1Loc,T2Loc,PreDistractor,PostDistractor,TotalImg,cueWord,T1cue,StimLength,isi,PicFolder,Img1,Img2,Img3,Img4,Img5,Img6,Img7,Img8,Img9,Img10,Img11,Img12,Img13,Img14,Img15,Img16,Img17,T1_Identity,Practice_Trials.thisRepN,Practice_Trials.thisTrialN,Practice_Trials.thisN,Practice_Trials.thisIndex,trials.thisRepN,trials.thisTrialN,trials.thisN,trials.thisIndex,Practice_Ins.started,Practice_Ins.stopped,End_Prac_Ins.keys,End_Prac_Ins.rt,End_Prac_Ins.started,End_Prac_Ins.stopped,text_2.started,text_2.stopped,Fixation_Cross_2.started,Fixation_Cross_2.stopped,Rapid_Image_Present_2.started,Rapid_Image_Present_2.stopped,key_resp.keys,key_resp.rt,key_resp.started,key_resp.stopped,T1Response_2.started,T1Response_2.stopped,T2Response_2.started,T2Response_2.stopped,key_resp_4.keys,key_resp_4.rt,key_resp_4.started,key_resp_4.stopped,text.started,text.stopped,End_Instructions.keys,End_Instructions.rt,End_Instructions.started,End_Instructions.stopped,text_5.started,text_5.stopped,FC.started,FC.stopped,Rapid_Image_Present.started,Rapid_Image_Present.stopped,T1Response.started,T1Response.stopped,key_resp_2.keys,key_resp_2.rt,key_resp_2.started,key_resp_2.stopped,T2Response.started,T2Response.stopped,key_resp_3.keys,key_resp_3.rt,key_resp_3.started,key_resp_3.stopped,participant,session,date,expName,psychopyVersion,frameRate,
,,,,,,,,,,,,,,,,,,,,,,,,,,,,,,,,,,,,,,,,,11.322831599973142,None,space,1.1963128000497818,11.322831599973142,None,,,,,,,,,,,,,,,,,,,,,,,,,,,,,,,,,,,,,,,,,,,test,001,2022-06-16_12h12.05.087,ABstudy,2022.1.4,59.853466783508956,
AB,Lag1_T1P_T2P,1,P,P,8,9,7,5,14,Tennis racket,Did you see the Tennis racket?,0.2,0.016,JPG\,coconut,computermouse06,croissant01,deodorant02a,pillow01a,peanut01,boot02b,tennisracket,blender,crayon,eggplant,marker01a,plant01,radish01,blankImage,blankImage,blankImage,tennisracket,0,0,0,0,,,,,,,,,,,12.61062019970268,13.626091999933124,13.609341699630022,14.254868400283158,14.254868400283158,None,right,0.5197823997586966,16.991370299831033,None,16.991370299831033,None,17.530664400197566,None,right,0.22847709991037846,17.530664400197566,None,,,,,,,,,,,,,,,,,,,,,,,,,test,001,2022-06-16_12h12.05.087,ABstudy,2022.1.4,59.853466783508956,
AB,Lag1_T1P_T2P,1,P,P,6,7,5,5,12,triangle,Did you see the triangle?,0.2,0.016,JPG\,ginger,mousetrap,plum01,slipper01b,dropper01,triangle,blender,pants,raspberry01,rope03,scale01a,vase01,blankImage,blankImage,blankImage,blankImage,blankImage,triangle,0,1,1,1,,,,,,,,,,,17.790547500364482,18.797320400364697,18.780632900074124,19.36007620021701,19.36007620021701,None,right,0.7900368003174663,21.817042900249362,None,21.817042900249362,None,22.63492130022496,None,right,0.27704180032014847,22.63492130022496,None,,,,,,,,,,,,,,,,,,,,,,,,,test,001,2022-06-16_12h12.05.087,ABstudy,2022.1.4,59.853466783508956,
AB,Lag5_T1P_T2P,5,P,P,7,12,6,3,15,vacuum,Did you see the vacuum?,0.2,0.016,JPG\,fork07b,lightbulb01,manshoe,saw02b,shoelace,soap03a,vacuumcleaner01,floortile01,necklace,doll,cabbage,blender,hanger02a,laptop01a,nailpolish03b,blankImage,blankImage,vacuumcleaner01,0,2,2,2,,,,,,,,,,,22.945218799635768,23.953396399505436,23.936794700101018,24.524513999931514,24.524513999931514,None,right,0.8034065002575517,27.619467499665916,None,27.619467499665916,None,28.44069410022348,None,right,0.33508980087935925,28.44069410022348,None,,,,,,,,,,,,,,,,,,,,,,,,,test,001,2022-06-16_12h12.05.087,ABstudy,2022.1.4,59.853466783508956,
AB,Lag5_T1P_T2P,5,P,P,5,10,4,5,15,Vulture,Did you see the Vulture?,0.2,0.016,JPG\,shorts01,toast,ramekin01,bib,vulture,cracker02,date,glasses01a,hat03b,blender,measuringtape01,nail,pill,drum01,starfish01,blankImage,blankImage,vulture,0,3,3,3,,,,,,,,,,,28.819916400127113,29.825824299827218,29.792657299898565,30.41091590002179,30.41091590002179,None,right,0.5501597002148628,33.41722489986569,None,33.41722489986569,None,33.99630989972502,None,right,0.20277720037847757,33.99630989972502,None,,,,,,,,,,,,,,,,,,,,,,,,,test,001,2022-06-16_12h12.05.087,ABstudy,2022.1.4,59.853466783508956,
AB,Lag5_T1P_T2P,5,P,P,5,10,4,5,15,washing machine,Did you see the washing machine?,0.2,0.016,JPG\,waterbottle03,wheel01,flashlight02b,zucchini01,washingmachine,headphones02b,nutcracker01,paintroller01,paperclip03,blender,ribbon04,electricrazor,bottleofredwine01,pitabread,pot02a,blankImage,blankImage,washingmachine,0,4,4,4,,,,,,,,,,,34.28499040007591,35.298071400262415,35.28140749968588,35.87527650035918,35.87527650035918,None,right,0.531215799972415,38.88407120015472,None,38.88407120015472,None,39.43506279960275,None,right,0.20396930072456598,39.43506279960275,None,,,,,,,,,,,,,,,,,,,,,,,,,test,001,2022-06-16_12h12.05.087,ABstudy,2022.1.4,59.853466783508956,
AB,Lag1_T1P_T2A,1,P,A,8,9,7,5,14,flower,Did you see the flower?,0.2,0.016,JPG\,razor01,axe01,binder03b,bowl01,kettle01,lettuce,lime,plasticflower01b,mitten04,pencilcase01,plunger02,strawbasket01,toothpick02,wallet02a,blankImage,blankImage,blankImage,plasticflower01b,0,5,5,5,,,,,,,,,,,39.7366014001891,40.736372199840844,40.719704899936914,41.2813248001039,41.2813248001039,None,right,0.5951187005266547,44.14043859951198,None,44.14043859951198,None,44.756806099787354,None,right,0.24272389989346266,44.756806099787354,None,,,,,,,,,,,,,,,,,,,,,,,,,test,001,2022-06-16_12h12.05.087,ABstudy,2022.1.4,59.853466783508956,
AB,Lag1_T1P_T2A,1,P,A,5,6,4,5,11,Webcam,Did you see the Webcam?,0.2,0.016,JPG\,pictureframe04,stapleremover,straw,adjustablewrench01b,webcam,cane,hairdryer02a,icepack,kitchenscale01a,lifejacket,piggybank,blankImage,blankImage,blankImage,blankImage,blankImage,blankImage,webcam,0,6,6,6,,,,,,,,,,,45.029829000122845,46.041887800209224,46.02516479976475,46.61700109951198,46.61700109951198,None,right,0.636001200415194,48.85125629976392,None,48.85125629976392,None,49.511849800124764,None,right,0.22314419969916344,49.511849800124764,None,,,,,,,,,,,,,,,,,,,,,,,,,test,001,2022-06-16_12h12.05.087,ABstudy,2022.1.4,59.853466783508956,
AB,Lag5_T1P_T2A,5,P,A,6,11,5,5,16,Wheat,Did you see the Wheat?,0.2,0.016,JPG\,bottleopener01,dentalfloss03b,cooler01,icecreamcone01a,paperclip01b,wheat,pencilsharpener02a,plasticbasket01a,toycar04,apricot,hairclip02,rock01a,honeydewmelon,antenna,blackberry,cardboardbox,blankImage,wheat,0,7,7,7,,,,,,,,,,,49.76679020002484,50.7796449996531,50.76302430033684,51.32848540041596,51.32848540041596,None,right,0.5104670003056526,54.552641400136054,None,54.552641400136054,None,55.08374419994652,None,right,0.1951752994209528,55.08374419994652,None,,,,,,,,,,,,,,,,,,,,,,,,,test,001,2022-06-16_12h12.05.087,ABstudy,2022.1.4,59.853466783508956,
AB,Lag5_T1P_T2A,5,P,A,6,11,5,5,16,bread,Did you see the bread?,0.2,0.016,JPG\,cleaver01,clipboard,dustpan,hikingshoe01,notebook03a,baguette01,playingcard,pliers02b,styrofoamcup,rollingpin01a,swimgoggles,wineglass01,fryingpan02a,safetypin,syringe01,thimble,blankImage,baguette01,0,8,8,8,,,,,,,,,,,55.30099849961698,56.30169629957527,56.285038399510086,56.85553649999201,56.85553649999201,None,right,0.7168295001611114,60.09855519980192,None,60.09855519980192,None,60.83963339962065,None,right,0.17571680061519146,60.83963339962065,None,,,,,,,,,,,,,,,,,,,,,,,,,test,001,2022-06-16_12h12.05.087,ABstudy,2022.1.4,59.853466783508956,
AB,Lag5_T1A_T2P,5,A,P,6,11,5,3,14,dog,Did you see the dog?,0.2,0.016,JPG\,bucket01a,doorlock,cookiecutter,fireextinguisher01,gluestick,highlighter02b,sportbag,spraybottle01,suitcase,thread02,blender,walnut01c,icecubetray01a,vikingmask01b,blankImage,blankImage,blankImage,None,0,9,9,9,,,,,,,,,,,61.05492310039699,62.05748450011015,62.02414460014552,62.61524919979274,62.61524919979274,None,right,0.4069402003660798,65.53668969962746,None,65.53668969962746,None,65.9632174000144,None,right,0.19724700041115284,65.9632174000144,None,,,,,,,,,,,,,,,,,,,,,,,,,test,001,2022-06-16_12h12.05.087,ABstudy,2022.1.4,59.853466783508956,
AB,Lag1_T1A_T2A,1,A,A,8,9,7,3,12,Moose,Did you see the Moose?,0.2,0.016,JPG\,clothespin03b,corkscrew03a,drillbit03a,fusilli03a,needlenosepliers01,perfume01a,pistachio,scrubbingbrush05b,spatula03,toothpastetube,hinge,toydinosaur,blankImage,blankImage,blankImage,blankImage,blankImage,None,0,10,10,10,,,,,,,,,,,66.19236410036683,67.19594740029424,67.1792449997738,67.7599218999967,67.7599218999967,None,right,0.5749169001355767,70.18496780004352,None,70.18496780004352,None,70.78320659976453,None,right,0.19157390017062426,70.78320659976453,None,,,,,,,,,,,,,,,,,,,,,,,,,test,001,2022-06-16_12h12.05.087,ABstudy,2022.1.4,59.853466783508956,
AB,Lag5_T1A_T2A,5,A,A,6,11,5,5,16,castle,Did you see the castle?,0.2,0.016,JPG\,tape02a,englishmuffin,flask,ladle02a,monitor,peach01,keychain,squeegee01b,telephone01b,whisk,walkman,syringe02,baguette01,coaster,box01a,coffeepot03a,blankImage,None,0,11,11,11,,,,,,,,,,,71.00503650028259,72.01720349956304,72.00051079969853,72.58165530022234,72.58165530022234,None,right,0.8041794998571277,75.79647819977254,None,75.79647819977254,None,76.62235729955137,None,right,0.20118570048362017,76.62235729955137,None,,,,,,,,,,,,,,,,,,,,,,,,,test,001,2022-06-16_12h12.05.087,ABstudy,2022.1.4,59.853466783508956,
,,,,,,,,,,,,,,,,,,,,,,,,,,,,,,,,,,,,,,,,,,,,,,,,,,,,,,,,,,,,,,,,,76.85585059970617,None,space,1.4311664998531342,76.85585059970617,None,,,,,,,,,,,,,,,,,,,test,001,2022-06-16_12h12.05.087,ABstudy,2022.1.4,59.853466783508956,
AB,Lag1_T1P_T2P,1,P,P,8,9,7,5,14,giraffe,Did you see the giraffe?,0.5,0.016,JPG\,pencil01,foosballtable,banana01,lipstick02a,toaster01,grape01,key01,giraffe,blender,pineapple01a,strawberry,teabag,dandelion,paintbrush01,blankImage,blankImage,blankImage,giraffe,,,,,0,0,0,0,,,,,,,,,,,,,,,,,,,,,,,,,,,,,,,78.74255819991231,79.74217899981886,79.7254342995584,80.34059720020741,80.34059720020741,None,85.84483529999852,None,right,0.5631873998790979,85.84483529999852,None,86.43372000008821,None,right,0.18147030007094145,86.43372000008821,None,test,001,2022-06-16_12h12.05.087,ABstudy,2022.1.4,59.853466783508956,
AB,Lag1_T1P_T2P,1,P,P,6,7,5,5,12,owl,Did you see the owl?,0.5,0.016,JPG\,paintbrush01,eraser,medal02b,hammer01,speaker04,greathornowl,blender,comb02a,plate01b,clock01a,button01,globe,blankImage,blankImage,blankImage,blankImage,blankImage,greathornowl,,,,,0,1,1,1,,,,,,,,,,,,,,,,,,,,,,,,,,,,,,,86.63951649982482,87.65031289961189,87.63380020018667,88.22913210000843,88.22913210000843,None,92.73048759996891,None,right,0.50086610019207,92.73048759996891,None,93.25655189994723,None,right,0.13496930059045553,93.25655189994723,None,test,001,2022-06-16_12h12.05.087,ABstudy,2022.1.4,59.853466783508956,
AB,Lag1_T1P_T2P,1,P,P,6,7,5,3,10,handcuffs,Did you see the handcuffs?,0.5,0.016,JPG\,sewingmachine01a,scarf,carrot01,book01b,eraser,handcuffs,blender,lipstick02a,printer02,garlic01a,blankImage,blankImage,blankImage,blankImage,blankImage,blankImage,blankImage,handcuffs,,,,,0,2,2,2,,,,,,,,,,,,,,,,,,,,,,,,,,,,,,,93.42441739980131,94.43986800033599,94.40647749975324,94.98222410026938,94.98222410026938,None,98.52348489966244,None,right,0.40432710014283657,98.52348489966244,None,98.94460320007056,None,right,0.15105380024760962,98.94460320007056,None,test,001,2022-06-16_12h12.05.087,ABstudy,2022.1.4,59.853466783508956,
AB,Lag1_T1P_T2P,1,P,P,7,8,6,5,13,horse,Did you see the horse?,0.5,0.016,JPG\,watermelon01,pencil01,microscope,blueberry01,computerkeyboard02,lamp04a,horse,blender,sock01a,key01,binoculars01b,cauliflower01,ashtray01,blankImage,blankImage,blankImage,blankImage,horse,,,,,0,3,3,3,,,,,,,,,,,,,,,,,,,,,,,,,,,,,,,99.13177900016308,100.14620009995997,100.12953739985824,100.72779139969498,100.72779139969498,None,105.69527139980346,106.70280379988253,right,1.048589600250125,105.69527139980346,None,106.77022640034556,None,right,0.2135110003873706,106.77022640034556,None,test,001,2022-06-16_12h12.05.087,ABstudy,2022.1.4,59.853466783508956,
AB,Lag1_T1P_T2P,1,P,P,6,7,5,5,12,snowman,Did you see the snowman?,0.5,0.016,JPG\,comb02a,watch02a,scissors01,dice05a,tableknife02,snowman,blender,printer02,dandelion,spoon01,ashtray01,battery02b,blankImage,blankImage,blankImage,blankImage,blankImage,snowman,,,,,0,4,4,4,,,,,,,,,,,,,,,,,,,,,,,,,,,,,,,107.01382109988481,108.02005519997329,108.00341220013797,108.5752525003627,108.5752525003627,None,113.10004569962621,114.10960059985518,right,16.715403400361538,113.10004569962621,None,129.84195869974792,None,right,0.1813508002087474,129.84195869974792,None,test,001,2022-06-16_12h12.05.087,ABstudy,2022.1.4,59.853466783508956,
AB,Lag1_T1P_T2P,1,P,P,5,6,4,5,11,squirrel,Did you see the squirrel?,0.5,0.016,JPG\,pencil01,orange,clock01a,sponge01,squirrel,blender,lipstick02a,strawberry,book01b,mushroom01,envelope03a,blankImage,blankImage,blankImage,blankImage,blankImage,blankImage,squirrel,,,,,0,5,5,5,,,,,,,,,,,,,,,,,,,,,,,,,,,,,,,130.04892169963568,131.05991689953953,131.04323299974203,131.63572909962386,131.63572909962386,None,135.67274529952556,None,right,0.46231089998036623,135.67274529952556,None,136.1651013996452,None,right,0.14588130079209805,136.1651013996452,None,test,001,2022-06-16_12h12.05.087,ABstudy,2022.1.4,59.853466783508956,
AB,Lag1_T1P_T2P,1,P,P,7,8,6,4,12,Christmas Tree,Did you see the Christmas Tree?,0.5,0.016,JPG\,sandal,fan,printer02,cellphone,mushroom01,candle08b,firtree,blender,lamp04a,hammer01,teabag,stapler03a,blankImage,blankImage,blankImage,blankImage,blankImage,firtree,,,,,0,6,6,6,,,,,,,,,,,,,,,,,,,,,,,,,,,,,,,136.3316401997581,137.33303279988468,137.31635969970375,137.90380359999835,137.90380359999835,None,142.4130370998755,None,right,0.4507386004552245,142.4130370998755,None,142.8883584998548,None,right,0.19127869978547096,142.8883584998548,None,test,001,2022-06-16_12h12.05.087,ABstudy,2022.1.4,59.853466783508956,
AB,Lag1_T1P_T2P,1,P,P,8,9,7,4,13,bowling ball,Did you see the bowling ball?,0.5,0.016,JPG\,dandelion,pineapple01a,broom01,pen04b,sock01a,sandal,foosballtable,bowlingball,blender,toothbrush03b,celery,candle08b,tennisball01b,blankImage,blankImage,blankImage,blankImage,bowlingball,,,,,0,7,7,7,,,,,,,,,,,,,,,,,,,,,,,,,,,,,,,143.10978429950774,144.12311649974436,144.10646250005811,144.69581239949912,144.69581239949912,None,149.695687700063,None,right,0.6239767000079155,149.695687700063,None,150.34587289951742,None,right,0.20506110042333603,150.34587289951742,None,test,001,2022-06-16_12h12.05.087,ABstudy,2022.1.4,59.853466783508956,
AB,Lag1_T1P_T2P,1,P,P,6,7,5,4,11,bowling pin,Did you see the bowling pin?,0.5,0.016,JPG\,strawberry,leaf02a,clock04,candle01,avocado01,bowlingpin,blender,brownsugar,ring01,lemon02,fork03c,blankImage,blankImage,blankImage,blankImage,blankImage,blankImage,bowlingpin,,,,,0,8,8,8,,,,,,,,,,,,,,,,,,,,,,,,,,,,,,,150.59261730033904,151.59705790039152,151.58057780005038,152.16729419957846,152.16729419957846,None,156.1569098001346,None,right,0.39451480004936457,156.1569098001346,None,156.5688829999417,None,right,0.24655670020729303,156.5688829999417,None,test,001,2022-06-16_12h12.05.087,ABstudy,2022.1.4,59.853466783508956,
AB,Lag1_T1P_T2P,1,P,P,5,6,4,5,11,candy cane,Did you see the candy cane?,0.5,0.016,JPG\,shirt02,match,screw02,foosballtable,candycane01a,blender,sewingmachine01a,watch02a,button01,comb02a,dice05a,blankImage,blankImage,blankImage,blankImage,blankImage,blankImage,candycane01a,,,,,0,9,9,9,,,,,,,,,,,,,,,,,,,,,,,,,,,,,,,156.84141639992595,157.8538803998381,157.83728879969567,158.4086728002876,158.4086728002876,None,162.43387609999627,None,right,0.4777870997786522,162.43387609999627,None,162.9416511002928,None,right,0.23395439982414246,162.9416511002928,None,test,001,2022-06-16_12h12.05.087,ABstudy,2022.1.4,59.853466783508956,
AB,Lag1_T1P_T2P,1,P,P,5,6,4,3,9,dolphin,Did you see the dolphin?,0.5,0.016,JPG\,coffeemaker,belt02a,rice,screwdriver04b,dolphin01,blender,candle08b,pear01,feather03a,blankImage,blankImage,blankImage,blankImage,blankImage,blankImage,blankImage,blankImage,dolphin01,,,,,0,10,10,10,,,,,,,,,,,,,,,,,,,,,,,,,,,,,,,163.1948290001601,164.20985789969563,164.17644349951297,164.76973870024085,164.76973870024085,None,167.80589819978923,None,right,0.5779536999762058,167.80589819978923,None,168.41403040010482,None,right,0.28163510002195835,168.41403040010482,None,test,001,2022-06-16_12h12.05.087,ABstudy,2022.1.4,59.853466783508956,
AB,Lag1_T1P_T2P,1,P,P,5,6,4,3,9,camel,Did you see the camel?,0.5,0.016,JPG\,iron01b,brick,broccoli01a,balloon01b,dromedary,blender,sandal,teabag,scissors01,blankImage,blankImage,blankImage,blankImage,blankImage,blankImage,blankImage,blankImage,dromedary,,,,,0,11,11,11,,,,,,,,,,,,,,,,,,,,,,,,,,,,,,,168.7183258002624,169.7320566000417,169.71531749982387,170.32689130026847,170.32689130026847,None,173.2962063997984,None,right,0.4560456005856395,173.2962063997984,None,173.76960569992661,None,right,0.381674999371171,173.76960569992661,None,test,001,2022-06-16_12h12.05.087,ABstudy,2022.1.4,59.853466783508956,
AB,Lag1_T1P_T2P,1,P,P,6,7,5,4,11,football,Did you see the football?,0.5,0.016,JPG\,toaster01,garlic01a,stapler03a,fan,comb02a,football,blender,watch02a,onion,blueberry01,toiletpaper01a,blankImage,blankImage,blankImage,blankImage,blankImage,blankImage,football,,,,,0,12,12,12,,,,,,,,,,,,,,,,,,,,,,,,,,,,,,,174.17789829988033,175.18770090024918,175.17093889974058,175.7796475002542,175.7796475002542,None,179.7584012998268,None,right,0.3449140004813671,179.7584012998268,None,180.12576370034367,None,right,0.2668108008801937,180.12576370034367,None,test,001,2022-06-16_12h12.05.087,ABstudy,2022.1.4,59.853466783508956,
AB,Lag1_T1P_T2P,1,P,P,5,6,4,5,11,golf ball,Did you see the golf ball?,0.5,0.016,JPG\,foosballtable,cigarette,pen04b,birthdaycandle,golfball,blender,binoculars01b,chain01,potato02b,cauliflower01,paintbrush01,blankImage,blankImage,blankImage,blankImage,blankImage,blankImage,golfball,,,,,0,13,13,13,,,,,,,,,,,,,,,,,,,,,,,,,,,,,,,180.4171468000859,181.42712020035833,181.41033990029246,182.01314270030707,182.01314270030707,None,185.98334429971874,None,right,0.5294459005817771,185.98334429971874,None,186.5322390999645,None,right,0.3074330994859338,186.5322390999645,None,test,001,2022-06-16_12h12.05.087,ABstudy,2022.1.4,59.853466783508956,
AB,Lag1_T1P_T2P,1,P,P,5,6,4,5,11,Guitar case,Did you see the Guitar case?,0.5,0.016,JPG\,broccoli01a,scissors01,toothbrush03b,foosballtable,guitarcase,blender,hammer01,toiletpaper01a,cd,garlic01a,carrot01,blankImage,blankImage,blankImage,blankImage,blankImage,blankImage,guitarcase,,,,,0,14,14,14,,,,,,,,,,,,,,,,,,,,,,,,,,,,,,,186.86981709953398,187.88394759967923,187.8674151999876,188.47501059994102,188.47501059994102,None,192.4398421999067,None,right,0.5676394002512097,192.4398421999067,None,193.03841659985483,None,right,0.19288320001214743,193.03841659985483,None,test,001,2022-06-16_12h12.05.087,ABstudy,2022.1.4,59.853466783508956,
AB,Lag1_T1P_T2P,1,P,P,6,7,5,3,10,jelly beans,Did you see the jelly beans?,0.5,0.016,JPG\,lipstick02a,cucumber,candle08b,printer02,grape01,jellybean,blender,lighter01,belt02a,balloon01b,blankImage,blankImage,blankImage,blankImage,blankImage,blankImage,blankImage,jellybean,,,,,0,15,15,15,,,,,,,,,,,,,,,,,,,,,,,,,,,,,,,193.25794879999012,194.27328819967806,194.23990209959447,194.8282842002809,194.8282842002809,None,198.34286800026894,None,right,0.44879100006073713,198.34286800026894,None,198.81117440015078,None,right,0.26148049999028444,198.81117440015078,None,test,001,2022-06-16_12h12.05.087,ABstudy,2022.1.4,59.853466783508956,
AB,Lag1_T1P_T2P,1,P,P,5,6,4,3,9,kangaroo,Did you see the kangaroo?,0.5,0.016,JPG\,candle01,shirt02,brick,orange,kangaroo,blender,pizza,thermometer02b,book01b,blankImage,blankImage,blankImage,blankImage,blankImage,blankImage,blankImage,blankImage,kangaroo,,,,,0,16,16,16,,,,,,,,,,,,,,,,,,,,,,,,,,,,,,,199.0988521995023,200.11238710023463,200.09559539984912,200.67736770026386,200.67736770026386,None,203.68361609987915,None,right,0.4772218996658921,203.68361609987915,None,204.183168400079,None,right,0.2637272998690605,204.183168400079,None,test,001,2022-06-16_12h12.05.087,ABstudy,2022.1.4,59.853466783508956,
AB,Lag1_T1P_T2P,1,P,P,8,9,7,4,13,kite,Did you see the kite?,0.5,0.016,JPG\,scissors01,balloon01b,eraser,feather03a,banana01,candle01,measuringcup01,kite,blender,strawberry,pear01,carrot01,globe,blankImage,blankImage,blankImage,blankImage,kite,,,,,0,17,17,17,,,,,,,,,,,,,,,,,,,,,,,,,,,,,,,204.4690509000793,205.48420840036124,205.45091309957206,206.0384766003117,206.0384766003117,None,211.12018509954214,None,right,0.8960391003638506,211.12018509954214,None,212.04106810037047,None,right,0.23798250034451485,212.04106810037047,None,test,001,2022-06-16_12h12.05.087,ABstudy,2022.1.4,59.853466783508956,
AB,Lag1_T1P_T2P,1,P,P,5,6,4,5,11,Light switch,Did you see the Light switch?,0.5,0.016,JPG\,iron01b,orange,birthdaycandle,potato02b,lightswitch01,blender,key01,candle08b,celery,tableknife02,pen04b,blankImage,blankImage,blankImage,blankImage,blankImage,blankImage,lightswitch01,,,,,0,18,18,18,,,,,,,,,,,,,,,,,,,,,,,,,,,,,,,212.3177701001987,213.32562339957803,213.3088637003675,213.8792372001335,213.8792372001335,None,217.89411689992994,None,right,0.9217114998027682,217.89411689992994,None,218.84781329985708,None,right,0.6716788001358509,218.84781329985708,None,test,001,2022-06-16_12h12.05.087,ABstudy,2022.1.4,59.853466783508956,
AB,Lag1_T1P_T2P,1,P,P,7,8,6,3,11,locker,Did you see the locker?,0.5,0.016,JPG\,toiletpaper01a,lipstick02a,potato02b,speaker04,globe,strawberry,locker,blender,sock01a,candle08b,pen04b,blankImage,blankImage,blankImage,blankImage,blankImage,blankImage,locker,,,,,0,19,19,19,,,,,,,,,,,,,,,,,,,,,,,,,,,,,,,219.5522266998887,220.56628870032728,220.54961210023612,221.20656010042876,221.12635549996048,None,225.12512029986829,None,right,0.4114886010065675,225.12512029986829,None,225.55618329998106,None,right,0.17957890033721924,225.55618329998106,None,test,001,2022-06-16_12h12.05.087,ABstudy,2022.1.4,59.853466783508956,
AB,Lag1_T1P_T2P,1,P,P,8,9,7,3,12,mail box,Did you see the mail box?,0.5,0.016,JPG\,paintbrush01,dice05a,watermelon01,broccoli01a,hammer01,leaf02a,match,mailbox01,blender,fan,lipstick02a,grape01,blankImage,blankImage,blankImage,blankImage,blankImage,mailbox01,,,,,0,20,20,20,,,,,,,,,,,,,,,,,,,,,,,,,,,,,,,225.7673345003277,226.77223839983344,226.75555329956114,227.3634788999334,227.3634788999334,None,231.85589969996363,232.86209850013256,left,15.407955899834633,231.85589969996363,None,247.29312899988145,None,left,0.13163150008767843,247.29312899988145,None,test,001,2022-06-16_12h12.05.087,ABstudy,2022.1.4,59.853466783508956,
AB,Lag1_T1P_T2P,1,P,P,5,6,4,3,9,mail box,Did you see the mail box?,0.5,0.016,JPG\,watermelon01,banana01,ring01,pencil01,mailbox02,blender,cucumber,thermometer02b,key01,blankImage,blankImage,blankImage,blankImage,blankImage,blankImage,blankImage,blankImage,mailbox02,,,,,0,21,21,21,,,,,,,,,,,,,,,,,,,,,,,,,,,,,,,247.44479779992253,248.4442627998069,248.42759739980102,249.00883230008185,249.00883230008185,None,252.07278439961374,253.08209619950503,left,1.6149436002597213,252.07278439961374,None,253.7160748001188,None,left,0.13149290066212416,253.7160748001188,None,test,001,2022-06-16_12h12.05.087,ABstudy,2022.1.4,59.853466783508956,
AB,Lag1_T1P_T2P,1,P,P,8,9,7,4,13,mattress,Did you see the mattress?,0.5,0.016,JPG\,button01,celery,birthdaycandle,apple07,avocado01,tennisball01b,dice05a,mattress,blender,feather03a,tomato01,scarf,orange,blankImage,blankImage,blankImage,blankImage,mattress,,,,,0,22,22,22,,,,,,,,,,,,,,,,,,,,,,,,,,,,,,,253.8704217998311,254.88390209991485,254.86718720011413,255.44769989978522,255.44769989978522,None,260.4541795998812,261.4574833000079,left,1.3135882001370192,260.4541795998812,None,261.7922596000135,None,left,0.1513459999114275,261.7922596000135,None,test,001,2022-06-16_12h12.05.087,ABstudy,2022.1.4,59.853466783508956,
AB,Lag1_T1P_T2P,1,P,P,5,6,4,3,9,Pumpkin,Did you see the Pumpkin?,0.5,0.016,JPG\,binoculars01b,speaker04,sandal,envelope03a,pumpkin,blender,battery02b,chain01,measuringcup01,blankImage,blankImage,blankImage,blankImage,blankImage,blankImage,blankImage,blankImage,pumpkin,,,,,0,23,23,23,,,,,,,,,,,,,,,,,,,,,,,,,,,,,,,261.98577510006726,262.991527300328,262.97485070023686,263.55027579981834,263.55027579981834,None,266.62030330020934,None,left,0.9633047003298998,266.62030330020934,None,267.61333329975605,None,left,0.17014320008456707,267.61333329975605,None,test,001,2022-06-16_12h12.05.087,ABstudy,2022.1.4,59.853466783508956,
AB,Lag1_T1P_T2P,1,P,P,7,8,6,5,13,school bus,Did you see the school bus?,0.5,0.016,JPG\,stapler03a,banana01,scissors01,coffeemaker,shirt02,leaf02a,schoolbus,blender,fork03c,tableknife02,balloon01b,match,toothbrush03b,blankImage,blankImage,blankImage,blankImage,schoolbus,,,,,0,24,24,24,,,,,,,,,,,,,,,,,,,,,,,,,,,,,,,267.818152599968,268.83109929971397,268.8144712001085,269.40443820040673,269.40443820040673,None,274.41372419986874,275.42155210021883,left,3.738512000069022,274.41372419986874,None,278.17510369978845,None,left,0.14501009974628687,278.17510369978845,None,test,001,2022-06-16_12h12.05.087,ABstudy,2022.1.4,59.853466783508956,
AB,Lag1_T1P_T2P,1,P,P,5,6,4,4,10,skateboard,Did you see the skateboard?,0.5,0.016,JPG\,binoculars01b,cymbal,pizza,candy,skateboard,blender,grape01,thermometer02b,speaker04,lemon02,blankImage,blankImage,blankImage,blankImage,blankImage,blankImage,blankImage,skateboard,,,,,0,25,25,25,,,,,,,,,,,,,,,,,,,,,,,,,,,,,,,278.34714039973915,279.35811780020595,279.3414337998256,279.9122534003109,279.9122534003109,None,283.48229669965804,284.49661090038717,left,21.16552469972521,283.48229669965804,None,304.6668391004205,None,left,0.14886900037527084,304.6668391004205,None,test,001,2022-06-16_12h12.05.087,ABstudy,2022.1.4,59.853466783508956,
AB,Lag1_T1P_T2P,1,P,P,5,6,4,5,11,soccer ball,Did you see the soccer ball?,0.5,0.016,JPG\,globe,belt02a,sponge01,violin,soccerball,blender,clock01a,microscope,balloon01b,scarf,teabag,blankImage,blankImage,blankImage,blankImage,blankImage,blankImage,soccerball,,,,,0,26,26,26,,,,,,,,,,,,,,,,,,,,,,,,,,,,,,,304.8364728000015,305.85131109971553,305.83465060032904,306.5334320003167,306.43838020041585,None,310.4344632998109,311.4404317000881,left,4.365574699826539,310.4344632998109,None,314.82715830020607,None,left,0.1567394006997347,314.82715830020607,None,test,001,2022-06-16_12h12.05.087,ABstudy,2022.1.4,59.853466783508956,
AB,Lag1_T1P_T2P,1,P,P,8,9,7,3,12,Wheelchair,Did you see the Wheelchair?,0.5,0.016,JPG\,cigarette,coffeemaker,banana01,strawberry,clock01a,plate01b,spoon01,wheelchair,blender,pineapple01a,chain01,paintbrush01,blankImage,blankImage,blankImage,blankImage,blankImage,wheelchair,,,,,0,27,27,27,,,,,,,,,,,,,,,,,,,,,,,,,,,,,,,315.0156250996515,316.0283286999911,316.0115996999666,316.59884279966354,316.59884279966354,None,321.1072220997885,322.11763770040125,left,3.1961855003610253,321.1072220997885,None,324.3198579000309,None,left,0.19942230079323053,324.3198579000309,None,test,001,2022-06-16_12h12.05.087,ABstudy,2022.1.4,59.853466783508956,
AB,Lag1_T1P_T2P,1,P,P,8,9,7,3,12,zebra,Did you see the zebra?,0.5,0.016,JPG\,apple07,toiletpaper01a,pizza,dandelion,greenolive,eraser,microscope,zebra,blender,lipstick02a,balloon01b,sandal,blankImage,blankImage,blankImage,blankImage,blankImage,zebra,,,,,0,28,28,28,,,,,,,,,,,,,,,,,,,,,,,,,,,,,,,324.54409009963274,325.55454770009965,325.5377091001719,326.1274116002023,326.1274116002023,None,330.66554270032793,331.67747890017927,left,2.8939426001161337,330.66554270032793,None,333.57940940000117,None,left,0.15593110024929047,333.57940940000117,None,test,001,2022-06-16_12h12.05.087,ABstudy,2022.1.4,59.853466783508956,
AB,Lag1_T1P_T2P,1,P,P,6,7,5,3,10,Pool table,Did you see the Pool table?,0.5,0.016,JPG\,tomato01,pen04b,shirt02,carrot01,lamp04a,pooltable,blender,avocado01,sewingmachine01a,apple07,blankImage,blankImage,blankImage,blankImage,blankImage,blankImage,blankImage,pooltable,,,,,0,29,29,29,,,,,,,,,,,,,,,,,,,,,,,,,,,,,,,333.7691312003881,334.78039150033146,334.7636567996815,335.3469508001581,335.3469508001581,None,338.85164130013436,339.8526087002829,left,5.060072600841522,338.85164130013436,None,343.9410538999364,None,left,0.25049580074846745,343.9410538999364,None,test,001,2022-06-16_12h12.05.087,ABstudy,2022.1.4,59.853466783508956,
AB,Lag1_T1P_T2P,1,P,P,7,8,6,3,11,swing,Did you see the swing?,0.5,0.016,JPG\,sewingmachine01a,thermometer02b,sponge01,eraser,broccoli01a,fork03c,swing,blender,belt02a,medal02b,pineapple01a,blankImage,blankImage,blankImage,blankImage,blankImage,blankImage,swing,,,,,0,30,30,30,,,,,,,,,,,,,,,,,,,,,,,,,,,,,,,344.2294613001868,345.2407646998763,345.22401669993997,345.8166595995426,345.8166595995426,None,349.81933439988643,350.8297817995772,left,2.068314299918711,349.81933439988643,None,351.91421139985323,None,left,0.1413433002308011,351.91421139985323,None,test,001,2022-06-16_12h12.05.087,ABstudy,2022.1.4,59.853466783508956,
AB,Lag1_T1P_T2P,1,P,P,6,7,5,3,10,elephant,Did you see the elephant?,0.5,0.016,JPG\,clock01a,grape01,plate01b,key01,screwdriver04b,africanelephant,blender,iron01b,toothbrush03b,comb02a,blankImage,blankImage,blankImage,blankImage,blankImage,blankImage,blankImage,africanelephant,,,,,0,31,31,31,,,,,,,,,,,,,,,,,,,,,,,,,,,,,,,352.0870487000793,353.0988320996985,353.08206989988685,353.67191530019045,353.67191530019045,None,357.20331319980323,358.2036920003593,left,6.692388899624348,357.20331319980323,None,363.9261034000665,None,left,0.18651260063052177,363.9261034000665,None,test,001,2022-06-16_12h12.05.087,ABstudy,2022.1.4,59.853466783508956,
