TrialType,CondType,Lag,T1_PA,T2_PA,T1Loc,T2Loc,PreDistractor,PostDistractor,TotalImg,cueWord,T1cue,StimLength,isi,PicFolder,Img1,Img2,Img3,Img4,Img5,Img6,Img7,Img8,Img9,Img10,Img11,Img12,Img13,Img14,Img15,Img16,Img17,T1_Identity,Practice_Trials.thisRepN,Practice_Trials.thisTrialN,Practice_Trials.thisN,Practice_Trials.thisIndex,trials.thisRepN,trials.thisTrialN,trials.thisN,trials.thisIndex,Practice_Ins.started,Practice_Ins.stopped,End_Prac_Ins.keys,End_Prac_Ins.rt,End_Prac_Ins.started,End_Prac_Ins.stopped,text_2.started,text_2.stopped,Fixation_Cross_2.started,Fixation_Cross_2.stopped,Rapid_Image_Present_2.started,Rapid_Image_Present_2.stopped,key_resp.keys,key_resp.rt,key_resp.started,key_resp.stopped,T1Response_2.started,T1Response_2.stopped,T2Response_2.started,T2Response_2.stopped,key_resp_4.keys,key_resp_4.rt,key_resp_4.started,key_resp_4.stopped,text.started,text.stopped,End_Instructions.keys,End_Instructions.rt,End_Instructions.started,End_Instructions.stopped,text_5.started,text_5.stopped,FC.started,FC.stopped,Rapid_Image_Present.started,Rapid_Image_Present.stopped,T1Response.started,T1Response.stopped,key_resp_2.keys,key_resp_2.rt,key_resp_2.started,key_resp_2.stopped,T2Response.started,T2Response.stopped,key_resp_3.keys,key_resp_3.rt,key_resp_3.started,key_resp_3.stopped,participant,session,date,expName,psychopyVersion,frameRate,
,,,,,,,,,,,,,,,,,,,,,,,,,,,,,,,,,,,,,,,,,12.745818099938333,None,space,0.35183149948716164,12.745818099938333,None,,,,,,,,,,,,,,,,,,,,,,,,,,,,,,,,,,,,,,,,,,,test,001,2022-06-16_14h49.18.198,ABstudy,2022.1.4,59.92480631066843,
AB,Lag1_T1P_T2P,1,P,P,8,9,7,5,14,Tennis racket,Did you see the Tennis racket?,0.5,0.016,JPG\,coconut,computermouse06,croissant01,deodorant02a,pillow01a,peanut01,boot02b,tennisracket,blender,crayon,eggplant,marker01a,plant01,radish01,blankImage,blankImage,blankImage,tennisracket,0,0,0,0,,,,,,,,,,,13.171159000135958,14.18610590044409,14.169342700392008,14.79608410038054,14.79608410038054,None,left,0.8725771000608802,21.817794300615788,None,21.817794300615788,None,22.711332900449634,None,left,0.12997880019247532,22.711332900449634,None,,,,,,,,,,,,,,,,,,,,,,,,,test,001,2022-06-16_14h49.18.198,ABstudy,2022.1.4,59.92480631066843,
AB,Lag1_T1P_T2P,1,P,P,6,7,5,5,12,triangle,Did you see the triangle?,0.5,0.016,JPG\,ginger,mousetrap,plum01,slipper01b,dropper01,triangle,blender,pants,raspberry01,rope03,scale01a,vase01,blankImage,blankImage,blankImage,blankImage,blankImage,triangle,0,1,1,1,,,,,,,,,,,22.86739190015942,23.88017340004444,23.8640564000234,24.463276800699532,24.463276800699532,None,left,0.7167428992688656,30.43684000056237,None,30.43684000056237,None,31.18707810062915,None,left,0.13564070034772158,31.18707810062915,None,,,,,,,,,,,,,,,,,,,,,,,,,test,001,2022-06-16_14h49.18.198,ABstudy,2022.1.4,59.92480631066843,
AB,Lag5_T1P_T2P,5,P,P,7,12,6,3,15,vacuum,Did you see the vacuum?,0.5,0.016,JPG\,fork07b,lightbulb01,manshoe,saw02b,shoelace,soap03a,vacuumcleaner01,floortile01,necklace,doll,cabbage,blender,hanger02a,laptop01a,nailpolish03b,blankImage,blankImage,vacuumcleaner01,0,2,2,2,,,,,,,,,,,31.358861700631678,32.3713319003582,32.35452700033784,32.93203030060977,32.93203030060977,None,left,0.49702150002121925,40.49658530019224,None,40.49658530019224,None,41.012777499854565,None,left,0.16472129989415407,41.012777499854565,None,,,,,,,,,,,,,,,,,,,,,,,,,test,001,2022-06-16_14h49.18.198,ABstudy,2022.1.4,59.92480631066843,
AB,Lag5_T1P_T2P,5,P,P,5,10,4,5,15,Vulture,Did you see the Vulture?,0.5,0.016,JPG\,shorts01,toast,ramekin01,bib,vulture,cracker02,date,glasses01a,hat03b,blender,measuringtape01,nail,pill,drum01,starfish01,blankImage,blankImage,vulture,0,3,3,3,,,,,,,,,,,41.206366300582886,42.21441960055381,42.197840300388634,42.78613180015236,42.78613180015236,None,left,0.48451209906488657,50.381916699931026,None,50.381916699931026,None,50.88937829993665,None,left,0.14390609879046679,50.88937829993665,None,,,,,,,,,,,,,,,,,,,,,,,,,test,001,2022-06-16_14h49.18.198,ABstudy,2022.1.4,59.92480631066843,
AB,Lag5_T1P_T2P,5,P,P,5,10,4,5,15,washing machine,Did you see the washing machine?,0.5,0.016,JPG\,waterbottle03,wheel01,flashlight02b,zucchini01,washingmachine,headphones02b,nutcracker01,paintroller01,paperclip03,blender,ribbon04,electricrazor,bottleofredwine01,pitabread,pot02a,blankImage,blankImage,washingmachine,0,4,4,4,,,,,,,,,,,51.06301760021597,52.07353200018406,52.05686110071838,52.633905599825084,52.633905599825084,None,left,0.4459556993097067,60.156417299993336,None,60.156417299993336,None,60.63237760029733,None,left,0.1210050992667675,60.63237760029733,None,,,,,,,,,,,,,,,,,,,,,,,,,test,001,2022-06-16_14h49.18.198,ABstudy,2022.1.4,59.92480631066843,
AB,Lag1_T1P_T2A,1,P,A,8,9,7,5,14,flower,Did you see the flower?,0.5,0.016,JPG\,razor01,axe01,binder03b,bowl01,kettle01,lettuce,lime,plasticflower01b,mitten04,pencilcase01,plunger02,strawbasket01,toothpick02,wallet02a,blankImage,blankImage,blankImage,plasticflower01b,0,5,5,5,,,,,,,,,,,60.83461500052363,61.83440379984677,61.83440379984677,62.47233569994569,62.40029750019312,None,left,0.48332969937473536,69.47147550061345,None,69.47147550061345,None,69.97566050011665,None,left,0.16196269914507866,69.97566050011665,None,,,,,,,,,,,,,,,,,,,,,,,,,test,001,2022-06-16_14h49.18.198,ABstudy,2022.1.4,59.92480631066843,
AB,Lag1_T1P_T2A,1,P,A,5,6,4,5,11,Webcam,Did you see the Webcam?,0.5,0.016,JPG\,pictureframe04,stapleremover,straw,adjustablewrench01b,webcam,cane,hairdryer02a,icepack,kitchenscale01a,lifejacket,piggybank,blankImage,blankImage,blankImage,blankImage,blankImage,blankImage,webcam,0,6,6,6,,,,,,,,,,,70.16928680054843,71.17695350013673,71.16028510034084,71.7585634002462,71.7585634002462,None,left,0.4789725001901388,77.38749380037189,None,77.38749380037189,None,77.88357419986278,None,left,0.165926699526608,77.88357419986278,None,,,,,,,,,,,,,,,,,,,,,,,,,test,001,2022-06-16_14h49.18.198,ABstudy,2022.1.4,59.92480631066843,
AB,Lag5_T1P_T2A,5,P,A,6,11,5,5,16,Wheat,Did you see the Wheat?,0.5,0.016,JPG\,bottleopener01,dentalfloss03b,cooler01,icecreamcone01a,paperclip01b,wheat,pencilsharpener02a,plasticbasket01a,toycar04,apricot,hairclip02,rock01a,honeydewmelon,antenna,blackberry,cardboardbox,blankImage,wheat,0,7,7,7,,,,,,,,,,,78.07258210051805,79.0846771998331,79.06796650029719,79.64772140048444,79.64772140048444,None,left,0.4387806998565793,87.7002274999395,None,87.7002274999395,None,88.16006830055267,None,left,0.13874219916760921,88.16006830055267,None,,,,,,,,,,,,,,,,,,,,,,,,,test,001,2022-06-16_14h49.18.198,ABstudy,2022.1.4,59.92480631066843,
AB,Lag5_T1P_T2A,5,P,A,6,11,5,5,16,bread,Did you see the bread?,0.5,0.016,JPG\,cleaver01,clipboard,dustpan,hikingshoe01,notebook03a,baguette01,playingcard,pliers02b,styrofoamcup,rollingpin01a,swimgoggles,wineglass01,fryingpan02a,safetypin,syringe01,thimble,blankImage,baguette01,0,8,8,8,,,,,,,,,,,88.32597899995744,89.32775150053203,89.31106540001929,89.88602230045944,89.88602230045944,None,left,0.5018593994900584,97.92392930015922,None,97.92392930015922,None,98.45366649981588,None,left,0.13299719989299774,98.45366649981588,None,,,,,,,,,,,,,,,,,,,,,,,,,test,001,2022-06-16_14h49.18.198,ABstudy,2022.1.4,59.92480631066843,
AB,Lag5_T1A_T2P,5,A,P,6,11,5,3,14,dog,Did you see the dog?,0.5,0.016,JPG\,bucket01a,doorlock,cookiecutter,fireextinguisher01,gluestick,highlighter02b,sportbag,spraybottle01,suitcase,thread02,blender,walnut01c,icecubetray01a,vikingmask01b,blankImage,blankImage,blankImage,None,0,9,9,9,,,,,,,,,,,98.60600499995053,99.62152800057083,99.58805510029197,100.17213810048997,100.17213810048997,None,left,0.4421962993219495,107.23998299986124,None,107.23998299986124,None,107.71277770027518,None,left,0.137466199696064,107.71277770027518,None,,,,,,,,,,,,,,,,,,,,,,,,,test,001,2022-06-16_14h49.18.198,ABstudy,2022.1.4,59.92480631066843,
AB,Lag1_T1A_T2A,1,A,A,8,9,7,3,12,Moose,Did you see the Moose?,0.5,0.016,JPG\,clothespin03b,corkscrew03a,drillbit03a,fusilli03a,needlenosepliers01,perfume01a,pistachio,scrubbingbrush05b,spatula03,toothpastetube,hinge,toydinosaur,blankImage,blankImage,blankImage,blankImage,blankImage,None,0,10,10,10,,,,,,,,,,,107.92470340058208,108.93115120008588,108.91449869982898,109.49678170029074,109.49678170029074,None,left,0.48721549939364195,115.62745350040495,None,115.62745350040495,None,116.13852259982377,None,left,0.1829676991328597,116.13852259982377,None,,,,,,,,,,,,,,,,,,,,,,,,,test,001,2022-06-16_14h49.18.198,ABstudy,2022.1.4,59.92480631066843,
AB,Lag5_T1A_T2A,5,A,A,6,11,5,5,16,castle,Did you see the castle?,0.5,0.016,JPG\,tape02a,englishmuffin,flask,ladle02a,monitor,peach01,keychain,squeegee01b,telephone01b,whisk,walkman,syringe02,baguette01,coaster,box01a,coffeepot03a,blankImage,None,0,11,11,11,,,,,,,,,,,116.33963530045003,117.34016400016844,117.32391559984535,117.91808260045946,117.91808260045946,None,left,0.7139492994174361,125.97626610007137,None,125.97626610007137,None,126.71535720024258,None,left,0.15872749965637922,126.71535720024258,None,,,,,,,,,,,,,,,,,,,,,,,,,test,001,2022-06-16_14h49.18.198,ABstudy,2022.1.4,59.92480631066843,
,,,,,,,,,,,,,,,,,,,,,,,,,,,,,,,,,,,,,,,,,,,,,,,,,,,,,,,,,,,,,,,,,126.89869450032711,None,space,1.2309810994192958,126.89869450032711,None,,,,,,,,,,,,,,,,,,,test,001,2022-06-16_14h49.18.198,ABstudy,2022.1.4,59.92480631066843,
AB,Lag1_T1P_T2P,1,P,P,8,9,7,5,14,giraffe,Did you see the giraffe?,0.2,0.016,JPG\,pencil01,foosballtable,banana01,lipstick02a,toaster01,grape01,key01,giraffe,blender,pineapple01a,strawberry,teabag,dandelion,paintbrush01,blankImage,blankImage,blankImage,giraffe,,,,,0,0,0,0,,,,,,,,,,,,,,,,,,,,,,,,,,,,,,,128.6369970999658,129.65150369983166,129.6181473005563,130.2368613006547,130.2368613006547,None,133.03044050000608,None,left,0.7873976994305849,133.03044050000608,None,133.8394571999088,None,left,0.14630449935793877,133.8394571999088,None,test,001,2022-06-16_14h49.18.198,ABstudy,2022.1.4,59.92480631066843,
AB,Lag1_T1P_T2P,1,P,P,6,7,5,5,12,owl,Did you see the owl?,0.2,0.016,JPG\,paintbrush01,eraser,medal02b,hammer01,speaker04,greathornowl,blender,comb02a,plate01b,clock01a,button01,globe,blankImage,blankImage,blankImage,blankImage,blankImage,greathornowl,,,,,0,1,1,1,,,,,,,,,,,,,,,,,,,,,,,,,,,,,,,134.01114850025624,135.0236162999645,135.00694110058248,135.58003449998796,135.58003449998796,None,138.06264889985323,None,left,0.4918574998155236,138.06264889985323,None,138.5779453003779,None,left,0.19172659888863564,138.5779453003779,None,test,001,2022-06-16_14h49.18.198,ABstudy,2022.1.4,59.92480631066843,
AB,Lag1_T1P_T2P,1,P,P,6,7,5,3,10,handcuffs,Did you see the handcuffs?,0.2,0.016,JPG\,sewingmachine01a,scarf,carrot01,book01b,eraser,handcuffs,blender,lipstick02a,printer02,garlic01a,blankImage,blankImage,blankImage,blankImage,blankImage,blankImage,blankImage,handcuffs,,,,,0,2,2,2,,,,,,,,,,,,,,,,,,,,,,,,,,,,,,,138.80203210003674,139.8117674002424,139.7949314005673,140.3828630000353,140.3828630000353,None,142.48591249994934,None,left,0.4275570996105671,142.48591249994934,None,142.93137420061976,None,left,0.15194209944456816,142.93137420061976,None,test,001,2022-06-16_14h49.18.198,ABstudy,2022.1.4,59.92480631066843,
AB,Lag1_T1P_T2P,1,P,P,7,8,6,5,13,horse,Did you see the horse?,0.2,0.016,JPG\,watermelon01,pencil01,microscope,blueberry01,computerkeyboard02,lamp04a,horse,blender,sock01a,key01,binoculars01b,cauliflower01,ashtray01,blankImage,blankImage,blankImage,blankImage,horse,,,,,0,3,3,3,,,,,,,,,,,,,,,,,,,,,,,,,,,,,,,143.1172727998346,144.11652940046042,144.09991469979286,144.77955100033432,144.69536780007184,None,147.3002907000482,None,left,0.3992932001128793,147.3002907000482,None,147.72009669989347,None,left,0.146340599283576,147.72009669989347,None,test,001,2022-06-16_14h49.18.198,ABstudy,2022.1.4,59.92480631066843,
AB,Lag1_T1P_T2P,1,P,P,6,7,5,5,12,snowman,Did you see the snowman?,0.2,0.016,JPG\,comb02a,watch02a,scissors01,dice05a,tableknife02,snowman,blender,printer02,dandelion,spoon01,ashtray01,battery02b,blankImage,blankImage,blankImage,blankImage,blankImage,snowman,,,,,0,4,4,4,,,,,,,,,,,,,,,,,,,,,,,,,,,,,,,147.93719640001655,148.9378121001646,148.92118030041456,149.51525030005723,149.51525030005723,None,151.92662230040878,None,left,0.4192722998559475,151.92662230040878,None,152.37455609999597,None,left,0.14729349967092276,152.37455609999597,None,test,001,2022-06-16_14h49.18.198,ABstudy,2022.1.4,59.92480631066843,
AB,Lag1_T1P_T2P,1,P,P,5,6,4,5,11,squirrel,Did you see the squirrel?,0.2,0.016,JPG\,pencil01,orange,clock01a,sponge01,squirrel,blender,lipstick02a,strawberry,book01b,mushroom01,envelope03a,blankImage,blankImage,blankImage,blankImage,blankImage,blankImage,squirrel,,,,,0,5,5,5,,,,,,,,,,,,,,,,,,,,,,,,,,,,,,,152.54159370064735,153.54122060071677,153.52528960071504,154.10002030059695,154.10002030059695,None,156.4077008999884,None,left,0.4423260996118188,156.4077008999884,None,156.87865080032498,None,left,0.13921499904245138,156.87865080032498,None,test,001,2022-06-16_14h49.18.198,ABstudy,2022.1.4,59.92480631066843,
AB,Lag1_T1P_T2P,1,P,P,7,8,6,4,12,Christmas Tree,Did you see the Christmas Tree?,0.2,0.016,JPG\,sandal,fan,printer02,cellphone,mushroom01,candle08b,firtree,blender,lamp04a,hammer01,teabag,stapler03a,blankImage,blankImage,blankImage,blankImage,blankImage,firtree,,,,,0,6,6,6,,,,,,,,,,,,,,,,,,,,,,,,,,,,,,,157.05149270035326,158.06321960035712,158.04650610033423,158.63349780067801,158.63349780067801,None,161.06871420051903,None,left,0.3729776991531253,161.06871420051903,None,161.46700880024582,None,left,0.1267709992825985,161.46700880024582,None,test,001,2022-06-16_14h49.18.198,ABstudy,2022.1.4,59.92480631066843,
AB,Lag1_T1P_T2P,1,P,P,8,9,7,4,13,bowling ball,Did you see the bowling ball?,0.2,0.016,JPG\,dandelion,pineapple01a,broom01,pen04b,sock01a,sandal,foosballtable,bowlingball,blender,toothbrush03b,celery,candle08b,tennisball01b,blankImage,blankImage,blankImage,blankImage,bowlingball,,,,,0,7,7,7,,,,,,,,,,,,,,,,,,,,,,,,,,,,,,,161.69502260070294,162.7011421006173,162.68442550022155,163.18500789999962,163.18500789999962,None,165.83575010020286,None,left,0.5030101994052529,165.83575010020286,None,166.35509940050542,None,left,0.16718420013785362,166.35509940050542,None,test,001,2022-06-16_14h49.18.198,ABstudy,2022.1.4,59.92480631066843,
AB,Lag1_T1P_T2P,1,P,P,6,7,5,4,11,bowling pin,Did you see the bowling pin?,0.2,0.016,JPG\,strawberry,leaf02a,clock04,candle01,avocado01,bowlingpin,blender,brownsugar,ring01,lemon02,fork03c,blankImage,blankImage,blankImage,blankImage,blankImage,blankImage,bowlingpin,,,,,0,8,8,8,,,,,,,,,,,,,,,,,,,,,,,,,,,,,,,166.5511264000088,167.5564802000299,167.52307120058686,168.12845049984753,168.12845049984753,None,170.37894910015166,None,left,0.6065173000097275,170.37894910015166,None,171.00937480013818,None,left,0.1681424994021654,171.00937480013818,None,test,001,2022-06-16_14h49.18.198,ABstudy,2022.1.4,59.92480631066843,
AB,Lag1_T1P_T2P,1,P,P,5,6,4,5,11,candy cane,Did you see the candy cane?,0.2,0.016,JPG\,shirt02,match,screw02,foosballtable,candycane01a,blender,sewingmachine01a,watch02a,button01,comb02a,dice05a,blankImage,blankImage,blankImage,blankImage,blankImage,blankImage,candycane01a,,,,,0,9,9,9,,,,,,,,,,,,,,,,,,,,,,,,,,,,,,,171.2119516003877,172.22742170002311,172.19391079992056,172.7809979999438,172.7809979999438,None,175.0766628002748,None,left,0.5011750999838114,175.0766628002748,None,175.5974778002128,None,left,0.14032099954783916,175.5974778002128,None,test,001,2022-06-16_14h49.18.198,ABstudy,2022.1.4,59.92480631066843,
AB,Lag1_T1P_T2P,1,P,P,5,6,4,3,9,dolphin,Did you see the dolphin?,0.2,0.016,JPG\,coffeemaker,belt02a,rice,screwdriver04b,dolphin01,blender,candle08b,pear01,feather03a,blankImage,blankImage,blankImage,blankImage,blankImage,blankImage,blankImage,blankImage,dolphin01,,,,,0,10,10,10,,,,,,,,,,,,,,,,,,,,,,,,,,,,,,,175.76790100056678,176.78202529996634,176.74863140005618,177.2494238000363,177.2494238000363,None,179.17562180012465,None,left,0.38666729908436537,179.17562180012465,None,179.58488939981908,None,left,0.1533637996762991,179.58488939981908,None,test,001,2022-06-16_14h49.18.198,ABstudy,2022.1.4,59.92480631066843,
AB,Lag1_T1P_T2P,1,P,P,5,6,4,3,9,camel,Did you see the camel?,0.2,0.016,JPG\,iron01b,brick,broccoli01a,balloon01b,dromedary,blender,sandal,teabag,scissors01,blankImage,blankImage,blankImage,blankImage,blankImage,blankImage,blankImage,blankImage,dromedary,,,,,0,11,11,11,,,,,,,,,,,,,,,,,,,,,,,,,,,,,,,179.770588000305,180.78603850025684,180.75267009995878,181.33764480054379,181.33764480054379,None,183.14935040008277,None,left,0.38082339987158775,183.14935040008277,None,183.55588790029287,None,left,0.14312049932777882,183.55588790029287,None,test,001,2022-06-16_14h49.18.198,ABstudy,2022.1.4,59.92480631066843,
AB,Lag1_T1P_T2P,1,P,P,6,7,5,4,11,football,Did you see the football?,0.2,0.016,JPG\,toaster01,garlic01a,stapler03a,fan,comb02a,football,blender,watch02a,onion,blueberry01,toiletpaper01a,blankImage,blankImage,blankImage,blankImage,blankImage,blankImage,football,,,,,0,12,12,12,,,,,,,,,,,,,,,,,,,,,,,,,,,,,,,183.7279623998329,184.74035750050098,184.7235767999664,185.32581510022283,185.32581510022283,None,187.51745809987187,None,left,0.5328819993883371,187.51745809987187,None,188.0770636005327,None,left,0.11029629968106747,188.0770636005327,None,test,001,2022-06-16_14h49.18.198,ABstudy,2022.1.4,59.92480631066843,
AB,Lag1_T1P_T2P,1,P,P,5,6,4,5,11,golf ball,Did you see the golf ball?,0.2,0.016,JPG\,foosballtable,cigarette,pen04b,birthdaycandle,golfball,blender,binoculars01b,chain01,potato02b,cauliflower01,paintbrush01,blankImage,blankImage,blankImage,blankImage,blankImage,blankImage,golfball,,,,,0,13,13,13,,,,,,,,,,,,,,,,,,,,,,,,,,,,,,,188.21717939991504,189.22767429985106,189.21103870030493,189.71149940043688,189.71149940043688,None,192.04141010064632,None,left,0.3606424992904067,192.04141010064632,None,192.4300481006503,None,left,0.14751749951392412,192.4300481006503,None,test,001,2022-06-16_14h49.18.198,ABstudy,2022.1.4,59.92480631066843,
AB,Lag1_T1P_T2P,1,P,P,5,6,4,5,11,Guitar case,Did you see the Guitar case?,0.2,0.016,JPG\,broccoli01a,scissors01,toothbrush03b,foosballtable,guitarcase,blender,hammer01,toiletpaper01a,cd,garlic01a,carrot01,blankImage,blankImage,blankImage,blankImage,blankImage,blankImage,guitarcase,,,,,0,14,14,14,,,,,,,,,,,,,,,,,,,,,,,,,,,,,,,192.63996970001608,193.6500479998067,193.6335236998275,194.2402402004227,194.2402402004227,None,196.46071400027722,None,left,0.41336349956691265,196.46071400027722,None,196.9020023001358,None,left,0.1479469994083047,196.9020023001358,None,test,001,2022-06-16_14h49.18.198,ABstudy,2022.1.4,59.92480631066843,
AB,Lag1_T1P_T2P,1,P,P,6,7,5,3,10,jelly beans,Did you see the jelly beans?,0.2,0.016,JPG\,lipstick02a,cucumber,candle08b,printer02,grape01,jellybean,blender,lighter01,belt02a,balloon01b,blankImage,blankImage,blankImage,blankImage,blankImage,blankImage,blankImage,jellybean,,,,,0,15,15,15,,,,,,,,,,,,,,,,,,,,,,,,,,,,,,,197.11281930003315,198.12038160022348,198.10361979994923,198.75940940063447,198.68938480038196,None,200.70555580034852,None,left,0.41647009924054146,200.70555580034852,None,201.13967460021377,None,left,0.1422290988266468,201.13967460021377,None,test,001,2022-06-16_14h49.18.198,ABstudy,2022.1.4,59.92480631066843,
AB,Lag1_T1P_T2P,1,P,P,5,6,4,3,9,kangaroo,Did you see the kangaroo?,0.2,0.016,JPG\,candle01,shirt02,brick,orange,kangaroo,blender,pizza,thermometer02b,book01b,blankImage,blankImage,blankImage,blankImage,blankImage,blankImage,blankImage,blankImage,kangaroo,,,,,0,16,16,16,,,,,,,,,,,,,,,,,,,,,,,,,,,,,,,201.30987939983606,202.324821700342,202.29133540019393,202.8936771005392,202.8936771005392,None,204.7084712004289,None,left,0.5100873988121748,204.7084712004289,None,205.2442371007055,None,left,0.14215090032666922,205.2442371007055,None,test,001,2022-06-16_14h49.18.198,ABstudy,2022.1.4,59.92480631066843,
AB,Lag1_T1P_T2P,1,P,P,8,9,7,4,13,kite,Did you see the kite?,0.2,0.016,JPG\,scissors01,balloon01b,eraser,feather03a,banana01,candle01,measuringcup01,kite,blender,strawberry,pear01,carrot01,globe,blankImage,blankImage,blankImage,blankImage,kite,,,,,0,17,17,17,,,,,,,,,,,,,,,,,,,,,,,,,,,,,,,205.4146822001785,206.42827370017767,206.41145140025765,207.0332992002368,206.95883829984814,None,209.67300890013576,None,left,0.40087589994072914,209.67300890013576,None,210.09905329998583,None,left,0.14376339968293905,210.09905329998583,None,test,001,2022-06-16_14h49.18.198,ABstudy,2022.1.4,59.92480631066843,
AB,Lag1_T1P_T2P,1,P,P,5,6,4,5,11,Light switch,Did you see the Light switch?,0.2,0.016,JPG\,iron01b,orange,birthdaycandle,potato02b,lightswitch01,blender,key01,candle08b,celery,tableknife02,pen04b,blankImage,blankImage,blankImage,blankImage,blankImage,blankImage,lightswitch01,,,,,0,18,18,18,,,,,,,,,,,,,,,,,,,,,,,,,,,,,,,210.2773863002658,211.28332240041345,211.26655500009656,211.8400055002421,211.8400055002421,None,214.11001740023494,None,left,0.38936989940702915,214.11001740023494,None,214.51992220059037,None,left,0.12992129940539598,214.51992220059037,None,test,001,2022-06-16_14h49.18.198,ABstudy,2022.1.4,59.92480631066843,
AB,Lag1_T1P_T2P,1,P,P,7,8,6,3,11,locker,Did you see the locker?,0.2,0.016,JPG\,toiletpaper01a,lipstick02a,potato02b,speaker04,globe,strawberry,locker,blender,sock01a,candle08b,pen04b,blankImage,blankImage,blankImage,blankImage,blankImage,blankImage,locker,,,,,0,19,19,19,,,,,,,,,,,,,,,,,,,,,,,,,,,,,,,214.67618250008672,215.68718890007585,215.67048810049891,216.26074280031025,216.26074280031025,None,218.46965780016035,None,left,0.47688219882547855,218.46965780016035,None,218.97401920054108,None,left,0.14854859933257103,218.97401920054108,None,test,001,2022-06-16_14h49.18.198,ABstudy,2022.1.4,59.92480631066843,
AB,Lag1_T1P_T2P,1,P,P,8,9,7,3,12,mail box,Did you see the mail box?,0.2,0.016,JPG\,paintbrush01,dice05a,watermelon01,broccoli01a,hammer01,leaf02a,match,mailbox01,blender,fan,lipstick02a,grape01,blankImage,blankImage,blankImage,blankImage,blankImage,mailbox01,,,,,0,20,20,20,,,,,,,,,,,,,,,,,,,,,,,,,,,,,,,219.1433854000643,220.158681999892,220.12532419990748,220.69561769999564,220.69561769999564,None,223.11240440048277,None,left,0.4897306999191642,223.11240440048277,None,223.62867250014096,None,left,0.1332735000178218,223.62867250014096,None,test,001,2022-06-16_14h49.18.198,ABstudy,2022.1.4,59.92480631066843,
AB,Lag1_T1P_T2P,1,P,P,5,6,4,3,9,mail box,Did you see the mail box?,0.2,0.016,JPG\,watermelon01,banana01,ring01,pencil01,mailbox02,blender,cucumber,thermometer02b,key01,blankImage,blankImage,blankImage,blankImage,blankImage,blankImage,blankImage,blankImage,mailbox02,,,,,0,21,21,21,,,,,,,,,,,,,,,,,,,,,,,,,,,,,,,223.7788853002712,224.7799094002694,224.76326290052384,225.36111650057137,225.36111650057137,None,227.1431806003675,None,left,0.5304100988432765,227.1431806003675,None,227.70004060026258,None,left,0.1415453990921378,227.70004060026258,None,test,001,2022-06-16_14h49.18.198,ABstudy,2022.1.4,59.92480631066843,
AB,Lag1_T1P_T2P,1,P,P,8,9,7,4,13,mattress,Did you see the mattress?,0.2,0.016,JPG\,button01,celery,birthdaycandle,apple07,avocado01,tennisball01b,dice05a,mattress,blender,feather03a,tomato01,scarf,orange,blankImage,blankImage,blankImage,blankImage,mattress,,,,,0,22,22,22,,,,,,,,,,,,,,,,,,,,,,,,,,,,,,,227.87070940062404,228.88404380064458,228.8672451004386,229.44756820052862,229.44756820052862,None,232.07050240039825,None,left,0.4918216997757554,232.07050240039825,None,232.5874008005485,None,left,0.1598589988425374,232.5874008005485,None,test,001,2022-06-16_14h49.18.198,ABstudy,2022.1.4,59.92480631066843,
AB,Lag1_T1P_T2P,1,P,P,5,6,4,3,9,Pumpkin,Did you see the Pumpkin?,0.2,0.016,JPG\,binoculars01b,speaker04,sandal,envelope03a,pumpkin,blender,battery02b,chain01,measuringcup01,blankImage,blankImage,blankImage,blankImage,blankImage,blankImage,blankImage,blankImage,pumpkin,,,,,0,23,23,23,,,,,,,,,,,,,,,,,,,,,,,,,,,,,,,232.8026144998148,233.80601720046252,233.78934380039573,234.35942899994552,234.35942899994552,None,236.1758519001305,None,left,0.5537711000069976,236.1758519001305,None,236.75915480032563,None,left,0.11439869925379753,236.75915480032563,None,test,001,2022-06-16_14h49.18.198,ABstudy,2022.1.4,59.92480631066843,
AB,Lag1_T1P_T2P,1,P,P,7,8,6,5,13,school bus,Did you see the school bus?,0.2,0.016,JPG\,stapler03a,banana01,scissors01,coffeemaker,shirt02,leaf02a,schoolbus,blender,fork03c,tableknife02,balloon01b,match,toothbrush03b,blankImage,blankImage,blankImage,blankImage,schoolbus,,,,,0,24,24,24,,,,,,,,,,,,,,,,,,,,,,,,,,,,,,,236.89790329989046,237.90975110046566,237.89313330035657,238.4638763004914,238.4638763004914,None,241.08828430064023,None,left,0.6111087994650006,241.08828430064023,None,241.73066530004144,None,left,0.11265309900045395,241.73066530004144,None,test,001,2022-06-16_14h49.18.198,ABstudy,2022.1.4,59.92480631066843,
AB,Lag1_T1P_T2P,1,P,P,5,6,4,4,10,skateboard,Did you see the skateboard?,0.2,0.016,JPG\,binoculars01b,cymbal,pizza,candy,skateboard,blender,grape01,thermometer02b,speaker04,lemon02,blankImage,blankImage,blankImage,blankImage,blankImage,blankImage,blankImage,skateboard,,,,,0,25,25,25,,,,,,,,,,,,,,,,,,,,,,,,,,,,,,,241.86904860008508,242.8812798000872,242.86471300013363,243.43907900061458,243.43907900061458,None,245.45624130032957,None,left,0.5220512989908457,245.45624130032957,None,246.00202510040253,None,left,0.11211179941892624,246.00202510040253,None,test,001,2022-06-16_14h49.18.198,ABstudy,2022.1.4,59.92480631066843,
AB,Lag1_T1P_T2P,1,P,P,5,6,4,5,11,soccer ball,Did you see the soccer ball?,0.2,0.016,JPG\,globe,belt02a,sponge01,violin,soccerball,blender,clock01a,microscope,balloon01b,scarf,teabag,blankImage,blankImage,blankImage,blankImage,blankImage,blankImage,soccerball,,,,,0,26,26,26,,,,,,,,,,,,,,,,,,,,,,,,,,,,,,,246.14144820068032,247.1523592006415,247.13572470005602,247.71687849983573,247.71687849983573,None,250.01519280020148,None,left,0.47521699871867895,250.01519280020148,None,250.50676550064236,None,left,0.1679595997557044,250.50676550064236,None,test,001,2022-06-16_14h49.18.198,ABstudy,2022.1.4,59.92480631066843,
AB,Lag1_T1P_T2P,1,P,P,8,9,7,3,12,Wheelchair,Did you see the Wheelchair?,0.2,0.016,JPG\,cigarette,coffeemaker,banana01,strawberry,clock01a,plate01b,spoon01,wheelchair,blender,pineapple01a,chain01,paintbrush01,blankImage,blankImage,blankImage,blankImage,blankImage,wheelchair,,,,,0,27,27,27,,,,,,,,,,,,,,,,,,,,,,,,,,,,,,,250.70933029986918,251.72363810054958,251.69025010056794,252.28650450054556,252.28650450054556,None,254.74026250001043,None,left,0.5095154996961355,254.74026250001043,None,255.2787110004574,None,left,0.15476859919726849,255.2787110004574,None,test,001,2022-06-16_14h49.18.198,ABstudy,2022.1.4,59.92480631066843,
AB,Lag1_T1P_T2P,1,P,P,8,9,7,3,12,zebra,Did you see the zebra?,0.2,0.016,JPG\,apple07,toiletpaper01a,pizza,dandelion,greenolive,eraser,microscope,zebra,blender,lipstick02a,balloon01b,sandal,blankImage,blankImage,blankImage,blankImage,blankImage,zebra,,,,,0,28,28,28,,,,,,,,,,,,,,,,,,,,,,,,,,,,,,,255.46212830021977,256.46163390018046,256.446482100524,257.0324412006885,257.0324412006885,None,259.5016066003591,None,left,0.4202042995020747,259.5016066003591,None,259.9484660997987,None,left,0.15725599974393845,259.9484660997987,None,test,001,2022-06-16_14h49.18.198,ABstudy,2022.1.4,59.92480631066843,
AB,Lag1_T1P_T2P,1,P,P,6,7,5,3,10,Pool table,Did you see the Pool table?,0.2,0.016,JPG\,tomato01,pen04b,shirt02,carrot01,lamp04a,pooltable,blender,avocado01,sewingmachine01a,apple07,blankImage,blankImage,blankImage,blankImage,blankImage,blankImage,blankImage,pooltable,,,,,0,29,29,29,,,,,,,,,,,,,,,,,,,,,,,,,,,,,,,260.13467730022967,261.1500497004017,261.116703200154,261.71861860062927,261.71861860062927,None,263.7146895006299,None,left,0.71902159973979,263.7146895006299,None,264.4525609007105,None,left,0.15801729913800955,264.4525609007105,None,test,001,2022-06-16_14h49.18.198,ABstudy,2022.1.4,59.92480631066843,
AB,Lag1_T1P_T2P,1,P,P,7,8,6,3,11,swing,Did you see the swing?,0.2,0.016,JPG\,sewingmachine01a,thermometer02b,sponge01,eraser,broccoli01a,fork03c,swing,blender,belt02a,medal02b,pineapple01a,blankImage,blankImage,blankImage,blankImage,blankImage,blankImage,swing,,,,,0,30,30,30,,,,,,,,,,,,,,,,,,,,,,,,,,,,,,,264.63893250003457,265.65408980008215,265.62075250037014,266.23437390010804,266.23437390010804,None,268.456061700359,None,left,0.5860813986510038,268.456061700359,None,269.07466949988157,None,left,0.12730229925364256,269.07466949988157,None,test,001,2022-06-16_14h49.18.198,ABstudy,2022.1.4,59.92480631066843,
AB,Lag1_T1P_T2P,1,P,P,6,7,5,3,10,elephant,Did you see the elephant?,0.2,0.016,JPG\,clock01a,grape01,plate01b,key01,screwdriver04b,africanelephant,blender,iron01b,toothbrush03b,comb02a,blankImage,blankImage,blankImage,blankImage,blankImage,blankImage,blankImage,africanelephant,,,,,0,31,31,31,,,,,,,,,,,,,,,,,,,,,,,,,,,,,,,269.2311662007123,270.24262640066445,270.2259374000132,270.8115501999855,270.8115501999855,None,272.8569216001779,None,left,0.4328795988112688,272.8569216001779,None,273.3148857001215,None,left,0.12697310000658035,273.3148857001215,None,test,001,2022-06-16_14h49.18.198,ABstudy,2022.1.4,59.92480631066843,
AB,Lag1_T1P_T2P,1,P,P,8,9,7,3,12,apron,Did you see the apron?,0.2,0.016,JPG\,avocado01,stapler03a,match,cauliflower01,paintbrush01,clock01a,coffeemaker,apron,blender,cellphone,watch02a,pear01,blankImage,blankImage,blankImage,blankImage,blankImage,apron,,,,,0,32,32,32,,,,,,,,,,,,,,,,,,,,,,,,,,,,,,,273.46796040050685,274.47935739997774,274.46279380004853,275.0447685997933,275.0447685997933,None,277.4984233006835,None,left,0.38396039977669716,277.4984233006835,None,277.8997633000836,None,left,0.15849890001118183,277.8997633000836,None,test,001,2022-06-16_14h49.18.198,ABstudy,2022.1.4,59.92480631066843,
AB,Lag1_T1P_T2P,1,P,P,5,6,4,5,11,owl,Did you see the owl?,0.2,0.016,JPG\,cellphone,tomato01,comb02a,candy,barnowl,blender,toaster01,fan,feather03a,pen04b,lemon02,blankImage,blankImage,blankImage,blankImage,blankImage,blankImage,barnowl,,,,,0,33,33,33,,,,,,,,,,,,,,,,,,,,,,,,,,,,,,,278.08600670006126,279.1014119004831,279.0680531999096,279.6553440000862,279.6553440000862,None,281.86716850008816,None,left,0.7107390994206071,281.86716850008816,None,282.60531800054014,None,left,0.14848089963197708,282.60531800054014,None,test,001,2022-06-16_14h49.18.198,ABstudy,2022.1.4,59.92480631066843,
AB,Lag1_T1P_T2P,1,P,P,5,6,4,5,11,Basketball,Did you see the Basketball?,0.2,0.016,JPG\,pencil01,microscope,banana01,computerkeyboard02,basketball01,blender,scissors01,sock01a,book01b,onion,dice05a,blankImage,blankImage,blankImage,blankImage,blankImage,blankImage,basketball01,,,,,0,34,34,34,,,,,,,,,,,,,,,,,,,,,,,,,,,,,,,282.7797480998561,283.78899290040135,283.77234630007297,284.34684740006924,284.34684740006924,None,286.58176060020924,None,left,0.4208387993276119,286.58176060020924,None,287.025452000089,None,left,0.16107769962400198,287.025452000089,None,test,001,2022-06-16_14h49.18.198,ABstudy,2022.1.4,59.92480631066843,
AB,Lag1_T1P_T2P,1,P,P,6,7,5,5,12,bat,Did you see the bat?,0.2,0.016,JPG\,comb02a,key01,medal02b,battery02b,lighter01,bat,blender,sandal,coffeemaker,cellphone,computerkeyboard02,calculator01,blankImage,blankImage,blankImage,blankImage,blankImage,bat,,,,,0,35,35,35,,,,,,,,,,,,,,,,,,,,,,,,,,,,,,,287.2112980000675,288.2279540998861,288.1934542004019,288.78889840003103,288.78889840003103,None,291.1905562998727,None,left,0.40324660018086433,291.1905562998727,None,291.614038400352,None,left,0.14766939915716648,291.614038400352,None,test,001,2022-06-16_14h49.18.198,ABstudy,2022.1.4,59.92480631066843,
AB,Lag1_T1P_T2P,1,P,P,7,8,6,3,11,cloud,Did you see the cloud?,0.2,0.016,JPG\,lighter01,hammer01,spoon01,chain01,cymbal,sponge01,cloud,blender,coffeemaker,watermelon01,cauliflower01,blankImage,blankImage,blankImage,blankImage,blankImage,blankImage,cloud,,,,,0,36,36,36,,,,,,,,,,,,,,,,,,,,,,,,,,,,,,,291.7855101004243,292.7980400007218,292.78127310052514,293.35251830052584,293.35251830052584,None,295.62365660071373,None,left,0.4581548999994993,295.62365660071373,None,296.10134960059077,None,left,0.17264029942452908,296.10134960059077,None,test,001,2022-06-16_14h49.18.198,ABstudy,2022.1.4,59.92480631066843,
AB,Lag1_T1P_T2P,1,P,P,8,9,7,4,13,crab,Did you see the crab?,0.2,0.016,JPG\,candle01,fork03c,plate01b,violin,computerkeyboard02,candy,calculator01,crab01,blender,sock01a,teabag,banana01,cd,blankImage,blankImage,blankImage,blankImage,crab01,,,,,0,37,37,37,,,,,,,,,,,,,,,,,,,,,,,,,,,,,,,296.3041284000501,297.3192632002756,297.2858528001234,297.85530269984156,297.85530269984156,None,300.5540860006586,301.55739339999855,left,1.4001005999743938,300.5540860006586,None,301.97438899986446,None,left,0.13266929984092712,301.97438899986446,None,test,001,2022-06-16_14h49.18.198,ABstudy,2022.1.4,59.92480631066843,
AB,Lag1_T1P_T2P,1,P,P,6,7,5,3,10,cupcake,Did you see the cupcake?,0.2,0.016,JPG\,printer02,leaf02a,cauliflower01,sock01a,brownsugar,cupcake,blender,orange,belt02a,shirt02,blankImage,blankImage,blankImage,blankImage,blankImage,blankImage,blankImage,cupcake,,,,,0,38,38,38,,,,,,,,,,,,,,,,,,,,,,,,,,,,,,,302.1310469005257,303.14207100030035,303.1254200004041,303.7236266005784,303.7236266005784,None,305.7977312998846,306.8124941000715,left,2.0686016995459795,305.7977312998846,None,307.89696590043604,None,left,0.1213505994528532,307.89696590043604,None,test,001,2022-06-16_14h49.18.198,ABstudy,2022.1.4,59.92480631066843,
AB,Lag1_T1P_T2P,1,P,P,8,9,7,4,13,Doughnut,Did you see the Doughnut?,0.2,0.016,JPG\,brick,eraser,cucumber,ashtray01,thermometer02b,binoculars01b,lipstick02a,donut,blender,brownsugar,battery02b,iron01b,dice05a,blankImage,blankImage,blankImage,blankImage,donut,,,,,0,39,39,39,,,,,,,,,,,,,,,,,,,,,,,,,,,,,,,308.05092350021005,309.06465969979763,309.0479631004855,309.637195000425,309.637195000425,None,312.2514990000054,313.25220950040966,left,1.4145460994914174,312.2514990000054,None,313.68599379993975,None,left,0.12391119915992022,313.68599379993975,None,test,001,2022-06-16_14h49.18.198,ABstudy,2022.1.4,59.92480631066843,
AB,Lag1_T1P_T2P,1,P,P,8,9,7,3,12,Eiffel tower,Did you see the Eiffel tower?,0.2,0.016,JPG\,celery,tennisball01b,calculator01,pear01,screw02,orange,button01,eiffeltower,blender,apple07,iron01b,brownsugar,blankImage,blankImage,blankImage,blankImage,blankImage,eiffeltower,,,,,0,40,40,40,,,,,,,,,,,,,,,,,,,,,,,,,,,,,,,313.8905097004026,314.90349309984595,314.8868139004335,315.4778490001336,315.4778490001336,None,317.78306830022484,318.7910917000845,left,3.5225279992446303,317.78306830022484,None,321.32699989993125,None,left,0.10760630015283823,321.32699989993125,None,test,001,2022-06-16_14h49.18.198,ABstudy,2022.1.4,59.92480631066843,
AB,Lag1_T1P_T2P,1,P,P,6,7,5,5,12,exit sign,Did you see the exit sign?,0.2,0.016,JPG\,printer02,envelope03a,potato02b,calculator01,tableknife02,exitsign,blender,coffeemaker,broom01,greenolive,candle08b,battery02b,blankImage,blankImage,blankImage,blankImage,blankImage,exitsign,,,,,0,41,41,41,,,,,,,,,,,,,,,,,,,,,,,,,,,,,,,321.4673530999571,322.47772810049355,322.4609860004857,323.0360567001626,323.0360567001626,None,325.53587600030005,None,left,0.3621582994237542,325.53587600030005,None,325.9153491007164,None,left,0.11847839970141649,325.9153491007164,None,test,001,2022-06-16_14h49.18.198,ABstudy,2022.1.4,59.92480631066843,
AB,Lag1_T1P_T2P,1,P,P,6,7,5,3,10,fortune cookie,Did you see the fortune cookie?,0.2,0.016,JPG\,scissors01,grape01,mushroom01,toiletpaper01a,greenolive,fortunecookie,blender,ashtray01,carrot01,pineapple01a,blankImage,blankImage,blankImage,blankImage,blankImage,blankImage,blankImage,fortunecookie,,,,,0,42,42,42,,,,,,,,,,,,,,,,,,,,,,,,,,,,,,,326.07375760003924,327.0823042001575,327.0655872002244,327.67213930003345,327.67213930003345,None,329.6800084998831,330.6863388000056,left,1.1786759998649359,329.6800084998831,None,330.88658390007913,None,left,0.10720029938966036,330.88658390007913,None,test,001,2022-06-16_14h49.18.198,ABstudy,2022.1.4,59.92480631066843,
AB,Lag1_T1P_T2P,1,P,P,7,8,6,3,11,harmonica,Did you see the harmonica?,0.2,0.016,JPG\,cucumber,ring01,lipstick02a,microscope,violin,garlic01a,harmonica,blender,cherry01,sewingmachine01a,belt02a,blankImage,blankImage,blankImage,blankImage,blankImage,blankImage,harmonica,,,,,0,43,43,43,,,,,,,,,,,,,,,,,,,,,,,,,,,,,,,331.0240401998162,332.03860390000045,332.0053404998034,332.5887630004436,332.5887630004436,None,334.8310011001304,None,left,0.7386440001428127,334.8310011001304,None,335.59071649983525,None,left,0.1399050997570157,335.59071649983525,None,test,001,2022-06-16_14h49.18.198,ABstudy,2022.1.4,59.92480631066843,
AB,Lag1_T1P_T2P,1,P,P,7,8,6,4,12,Dog House,Did you see the Dog House?,0.2,0.016,JPG\,pineapple01a,leaf02a,grape01,toiletpaper01a,match,tennisball01b,doghouse,blender,coffeemaker,measuringcup01,ring01,lemon02,blankImage,blankImage,blankImage,blankImage,blankImage,doghouse,,,,,0,44,44,44,,,,,,,,,,,,,,,,,,,,,,,,,,,,,,,335.76532340049744,336.7757333004847,336.75901990011334,337.34421609994024,337.34421609994024,None,339.7840317003429,None,left,0.6662467997521162,339.7840317003429,None,340.47943439986557,None,left,0.1149073988199234,340.47943439986557,None,test,001,2022-06-16_14h49.18.198,ABstudy,2022.1.4,59.92480631066843,
AB,Lag1_T1P_T2P,1,P,P,8,9,7,4,13,ladder,Did you see the ladder?,0.2,0.016,JPG\,cigarette,fork03c,greenolive,broccoli01a,avocado01,tennisball01b,balloon01b,ladder,blender,fan,clock01a,strawberry,envelope03a,blankImage,blankImage,blankImage,blankImage,ladder,,,,,0,45,45,45,,,,,,,,,,,,,,,,,,,,,,,,,,,,,,,340.6164274001494,341.6299796998501,341.5974101005122,342.1714956006035,342.1714956006035,None,344.8172436002642,None,left,0.4248751001432538,344.8172436002642,None,345.2676691999659,None,left,0.1341282995417714,345.2676691999659,None,test,001,2022-06-16_14h49.18.198,ABstudy,2022.1.4,59.92480631066843,
AB,Lag1_T1P_T2P,1,P,P,8,9,7,5,14,lawn mower,Did you see the lawn mower?,0.2,0.016,JPG\,battery02b,sunglasses04,pear01,tennisball01b,clock01a,speaker04,binoculars01b,lawnmower,blender,pineapple01a,avocado01,grape01,blueberry01,violin,blankImage,blankImage,blankImage,lawnmower,,,,,0,46,46,46,,,,,,,,,,,,,,,,,,,,,,,,,,,,,,,345.43306240066886,346.43542880006135,346.4187197005376,347.0112113999203,347.0112113999203,None,349.9007090004161,None,left,0.38951229956001043,349.9007090004161,None,350.3224995005876,None,left,0.12768999952822924,350.3224995005876,None,test,001,2022-06-16_14h49.18.198,ABstudy,2022.1.4,59.92480631066843,
AB,Lag1_T1P_T2P,1,P,P,6,7,5,4,11,no parking sign,Did you see the no parking sign?,0.2,0.016,JPG\,fork03c,belt02a,grape01,computerkeyboard02,lemon02,noparkingsign,blender,toiletpaper01a,toaster01,lipstick02a,book01b,blankImage,blankImage,blankImage,blankImage,blankImage,blankImage,noparkingsign,,,,,0,47,47,47,,,,,,,,,,,,,,,,,,,,,,,,,,,,,,,350.4751443006098,351.49041500035673,351.4569743005559,352.0378000000492,352.0378000000492,None,354.33664800040424,None,left,0.3774852994829416,354.33664800040424,None,354.74395450018346,None,left,0.12214809935539961,354.74395450018346,None,test,001,2022-06-16_14h49.18.198,ABstudy,2022.1.4,59.92480631066843,
AB,Lag1_T1P_T2P,1,P,P,7,8,6,4,12,skunk,Did you see the skunk?,0.2,0.016,JPG\,fan,tomato01,candy,screwdriver04b,alligator,cd,skunk,blender,button01,plate01b,brownsugar,lighter01,blankImage,blankImage,blankImage,blankImage,blankImage,skunk,,,,,0,48,48,48,,,,,,,,,,,,,,,,,,,,,,,,,,,,,,,354.8975114002824,355.9116785004735,355.8781900005415,356.4798276005313,356.4798276005313,None,358.93034330010414,None,left,0.4635760998353362,358.93034330010414,None,359.41562850028276,None,left,0.13897249940782785,359.41562850028276,None,test,001,2022-06-16_14h49.18.198,ABstudy,2022.1.4,59.92480631066843,
AB,Lag1_T1P_T2P,1,P,P,6,7,5,5,12,Snowboard,Did you see the Snowboard?,0.2,0.016,JPG\,belt02a,measuringcup01,spoon01,chain01,greenolive,snowboard,blender,onion,fan,strawberry,candle01,broom01,blankImage,blankImage,blankImage,blankImage,blankImage,snowboard,,,,,0,49,49,49,,,,,,,,,,,,,,,,,,,,,,,,,,,,,,,359.5949109001085,360.5995458001271,360.56617160048336,361.1618739999831,361.1618739999831,None,363.61854030005634,None,left,0.38358689937740564,363.61854030005634,None,364.019654000178,None,left,0.1502283001318574,364.019654000178,None,test,001,2022-06-16_14h49.18.198,ABstudy,2022.1.4,59.92480631066843,
AB,Lag1_T1P_T2P,1,P,P,7,8,6,5,13,tiger,Did you see the tiger?,0.2,0.016,JPG\,globe,broccoli01a,binoculars01b,iron01b,avocado01,dandelion,tiger02,blender,fan,pizza,celery,blueberry01,sewingmachine01a,blankImage,blankImage,blankImage,blankImage,tiger02,,,,,0,50,50,50,,,,,,,,,,,,,,,,,,,,,,,,,,,,,,,364.19074160046875,365.2041883999482,365.18754780013114,365.8552847998217,365.769214999862,None,368.40710100065917,None,left,0.37159879971295595,368.40710100065917,None,368.80780620034784,None,left,0.11475499905645847,368.80780620034784,None,test,001,2022-06-16_14h49.18.198,ABstudy,2022.1.4,59.92480631066843,
AB,Lag1_T1P_T2P,1,P,P,7,8,6,3,11,tree,Did you see the tree?,0.2,0.016,JPG\,pear01,clock01a,cymbal,match,ashtray01,globe,tree,blender,lemon02,pen04b,dice05a,blankImage,blankImage,blankImage,blankImage,blankImage,blankImage,tree,,,,,0,51,51,51,,,,,,,,,,,,,,,,,,,,,,,,,,,,,,,368.94421620015055,369.9589777002111,369.9254911998287,370.5046696001664,370.5046696001664,None,372.75563899986446,None,left,0.4789679003879428,372.75563899986446,None,373.26382870040834,None,left,0.12255149893462658,373.26382870040834,None,test,001,2022-06-16_14h49.18.198,ABstudy,2022.1.4,59.92480631066843,
AB,Lag1_T1P_T2P,1,P,P,8,9,7,5,14,Waterfall,Did you see the Waterfall?,0.2,0.016,JPG\,pizza,watch02a,greenolive,cucumber,match,violin,scissors01,waterfall,blender,cherry01,ring01,cigarette,microscope,cellphone,blankImage,blankImage,blankImage,waterfall,,,,,0,52,52,52,,,,,,,,,,,,,,,,,,,,,,,,,,,,,,,373.41424529999495,374.413388799876,374.3966653998941,374.9872599998489,374.9872599998489,None,377.8452777005732,None,left,0.36500659864395857,377.8452777005732,None,378.2333078002557,None,left,0.1209843996912241,378.2333078002557,None,test,001,2022-06-16_14h49.18.198,ABstudy,2022.1.4,59.92480631066843,
AB,Lag1_T1P_T2P,1,P,P,6,7,5,4,11,Bow,Did you see the Bow?,0.2,0.016,JPG\,broom01,plate01b,scissors01,garlic01a,paintbrush01,bow,blender,shirt02,speaker04,celery,sandal,blankImage,blankImage,blankImage,blankImage,blankImage,blankImage,bow,,,,,0,53,53,53,,,,,,,,,,,,,,,,,,,,,,,,,,,,,,,378.3866284005344,379.4011970004067,379.3678234005347,379.93642870057374,379.93642870057374,None,382.1679341001436,None,left,0.8107522996142507,382.1679341001436,None,383.00495280046016,384.0059759002179,left,1.397384099662304,383.00495280046016,None,test,001,2022-06-16_14h49.18.198,ABstudy,2022.1.4,59.92480631066843,
